subject_id,session_number,block_number,trial_number,trial_type,response_made,current_speed,width,distance_level,trial_start_ms,loom_onset_ms,d7_onset_ms,position_D7_ms,position_D6_ms,position_D5_ms,position_D4_ms,position_D3_ms,position_D2_ms,position_D1_ms,vibrotactile_onset_ms,response_time_ms,reaction_time_ms,distance_m,loom_start_m,loom_end_m,vibration_device,trial_interrupted,timestamp
pam,1,1,1,T,1,slow,narrow,D4,52993.326,,,,,,,,,55965.000,55298.749,-666.3,1.700,3.250,0.150,None,0,2026-07-14T15:11:49.3536931+02:00
pam,1,1,2,VT,1,fast,narrow,D1,59561.954,59561.954,59936.937,60187.145,60423.151,60673.481,60936.668,61186.720,61436.842,61436.842,60048.314,-1388.5,0.150,3.250,0.150,None,0,2026-07-14T15:11:52.8375529+02:00
pam,1,1,3,V,1,slow,narrow,,62672.658,62672.658,63645.122,64311.846,64977.922,65644.452,66310.680,66977.205,67644.113,,63394.987,,,3.250,0.150,None,0,2026-07-14T15:11:59.0444674+02:00
pam,1,1,4,V,1,fast,narrow,,68948.957,68948.957,69324.405,69574.058,69824.190,70060.048,70310.251,70560.110,70823.745,,69698.992,,,3.250,0.150,None,0,2026-07-14T15:12:02.2247201+02:00
pam,1,1,5,T,1,slow,narrow,D4,72115.018,,,,,,,,,75087.172,75031.833,-55.3,1.700,3.250,0.150,None,0,2026-07-14T15:12:08.4751792+02:00
pam,1,1,6,VT,1,slow,narrow,D5,78392.574,78392.574,79364.679,80031.321,80697.567,81363.840,82030.929,82697.140,83363.354,80697.567,79573.107,-1124.5,2.217,3.250,0.150,None,0,2026-07-14T15:12:14.7642743+02:00
pam,1,1,7,VT,1,slow,narrow,D3,84904.906,84904.906,85877.116,86543.746,87210.204,87876.707,88543.185,89209.736,89876.664,88543.185,87112.965,-1430.2,1.183,3.250,0.150,None,0,2026-07-14T15:12:21.2774423+02:00
pam,1,1,8,V,1,slow,narrow,,91501.397,91501.397,92472.770,93125.873,93792.658,94459.426,95139.380,95805.953,96472.660,,92681.309,,,3.250,0.150,None,0,2026-07-14T15:12:27.8738150+02:00
pam,1,1,9,T,1,slow,narrow,D2,97777.879,,,,,,,,,102082.187,98472.509,-3609.7,0.667,3.250,0.150,None,0,2026-07-14T15:12:34.1364591+02:00
pam,1,1,10,VT,0,slow,narrow,D7,104373.833,104373.833,105345.868,106012.376,106679.104,107346.386,107999.148,108678.707,109344.945,105345.868,,,3.250,3.250,0.150,None,0,2026-07-14T15:12:41.1626201+02:00
pam,1,1,11,VT,1,slow,narrow,D2,111108.587,111108.587,112080.503,112733.334,113400.361,114080.245,114746.926,115413.371,116066.447,115413.371,115136.080,-277.3,0.667,3.250,0.150,None,0,2026-07-14T15:12:47.4813875+02:00
pam,1,1,12,T,0,fast,narrow,D6,117482.008,,,,,,,,,118107.017,,,2.733,3.250,0.150,None,0,2026-07-14T15:12:51.3692706+02:00
pam,1,1,13,VT,0,slow,narrow,D6,121245.881,121245.881,122218.089,122884.236,123550.904,124217.411,124883.951,125550.443,126216.921,122884.236,,,2.733,3.250,0.150,None,0,2026-07-14T15:12:58.1870916+02:00
pam,1,1,14,V,0,slow,narrow,,128508.264,128508.264,129480.447,130146.988,130813.247,131479.960,132146.479,132813.468,133480.016,,,,,3.250,0.150,None,0,2026-07-14T15:13:04.8810050+02:00
pam,1,1,15,T,0,fast,narrow,D6,135271.620,,,,,,,,,135896.583,,,2.733,3.250,0.150,None,0,2026-07-14T15:13:09.6865926+02:00
pam,1,1,16,T,0,slow,narrow,D5,140076.669,,,,,,,,,142381.865,,,2.217,3.250,0.150,None,0,2026-07-14T15:13:16.8514374+02:00
pam,1,1,17,VT,1,slow,narrow,D1,147255.600,147255.600,148227.639,148880.459,149547.517,150227.733,150880.515,151560.841,152227.329,152227.329,148519.324,-3708.0,0.150,3.250,0.150,None,0,2026-07-14T15:13:23.6282829+02:00
pam,1,1,18,T,1,fast,narrow,D4,154004.450,,,,,,,,,155124.979,155152.711,27.7,1.700,3.250,0.150,None,0,2026-07-14T15:13:27.2626501+02:00
pam,1,1,19,VT,0,slow,narrow,D6,157154.614,157154.614,158127.282,158780.159,159460.464,160127.211,160793.728,161446.747,162127.793,158780.159,,,2.733,3.250,0.150,None,0,2026-07-14T15:13:34.4170060+02:00
pam,1,1,20,VT,0,fast,narrow,D4,164362.743,164362.743,164737.639,164974.235,165237.695,165487.963,165737.552,165987.787,166237.885,165487.963,,,1.700,3.250,0.150,None,0,2026-07-14T15:13:38.5969474+02:00
pam,1,1,21,V,0,slow,narrow,,168834.662,168834.662,169806.487,170472.881,171139.491,171805.905,172472.536,173139.137,173805.426,,,,,3.250,0.150,None,0,2026-07-14T15:13:45.2060968+02:00
pam,1,1,22,VT,0,fast,narrow,D6,175333.531,175333.531,175708.436,175958.438,176208.346,176458.652,176694.735,176958.308,177208.179,175958.438,,,2.733,3.250,0.150,None,0,2026-07-14T15:13:49.4282990+02:00
pam,1,1,23,VT,0,slow,narrow,D4,179582.866,179582.866,180554.627,181207.666,181887.697,182554.182,183220.735,183874.056,184554.306,182554.182,,,1.700,3.250,0.150,None,0,2026-07-14T15:13:56.6913602+02:00
pam,1,1,24,T,1,fast,narrow,D1,187025.723,,,,,,,,,188900.378,189692.430,792.1,0.150,3.250,0.150,None,0,2026-07-14T15:14:01.0805252+02:00
pam,1,1,25,VT,1,fast,narrow,D6,191011.998,191011.998,191386.857,191636.890,191873.299,192137.023,192373.498,192623.319,192873.628,191636.890,192595.576,958.7,2.733,3.250,0.150,None,0,2026-07-14T15:14:04.2742400+02:00
pam,1,1,26,VT,1,fast,narrow,D4,194636.902,194636.902,195011.419,195261.364,195511.613,195761.335,196011.839,196261.093,196510.941,195761.335,195789.381,28.0,1.700,3.250,0.150,None,0,2026-07-14T15:14:07.9116827+02:00
pam,1,1,27,VT,1,fast,narrow,D7,198177.511,198177.511,198552.270,198802.317,199052.163,199302.304,199551.884,199801.976,200051.613,198552.270,198996.446,444.2,3.250,3.250,0.150,None,0,2026-07-14T15:14:11.4523682+02:00
pam,1,1,28,T,1,slow,narrow,D2,201579.302,,,,,,,,,205883.878,202801.481,-3082.4,0.667,3.250,0.150,None,0,2026-07-14T15:14:17.9514882+02:00
pam,1,1,29,T,1,fast,narrow,D1,207786.533,,,,,,,,,209660.977,208841.886,-819.1,0.150,3.250,0.150,None,0,2026-07-14T15:14:21.0495409+02:00
pam,1,1,30,VT,0,fast,narrow,D7,211257.918,211257.918,211633.086,211868.992,212119.148,212369.349,212632.733,212883.275,213150.220,211633.086,,,3.250,3.250,0.150,None,0,2026-07-14T15:14:25.5520617+02:00
pam,1,1,31,V,0,fast,narrow,,215464.387,215464.387,215839.298,216075.547,216325.513,216575.517,216825.606,217075.501,217325.678,,,,,3.250,0.150,None,0,2026-07-14T15:14:28.7264017+02:00
pam,1,1,32,VT,0,fast,narrow,D1,218589.466,218589.466,218964.335,219200.825,219464.742,219714.452,219950.520,220214.182,220450.416,220450.416,,,0.150,3.250,0.150,None,0,2026-07-14T15:14:33.4802680+02:00
pam,1,1,33,VT,1,slow,narrow,D4,223880.112,223880.112,224852.243,225505.250,226172.023,226852.144,227518.885,228185.222,228851.174,226852.144,227324.400,472.3,1.700,3.250,0.150,None,0,2026-07-14T15:14:40.2522719+02:00
pam,1,1,34,VT,1,fast,narrow,D6,230087.137,230087.137,230462.451,230712.414,230962.178,231212.125,231462.642,231712.345,231962.176,230712.414,231142.890,430.5,2.733,3.250,0.150,None,0,2026-07-14T15:14:43.3627648+02:00
pam,1,1,35,V,0,fast,narrow,,233253.519,233253.519,233628.638,233878.584,234128.768,234379.387,234629.010,234879.277,235129.088,,,,,3.250,0.150,None,0,2026-07-14T15:14:46.5305887+02:00
pam,1,1,36,T,1,slow,narrow,D3,236643.467,,,,,,,,,240282.604,239657.648,-625.0,1.183,3.250,0.150,None,0,2026-07-14T15:14:53.0164229+02:00
pam,1,1,37,VT,1,slow,narrow,D3,243378.828,243378.828,244351.043,245017.168,245683.726,246350.446,247017.439,247683.746,248349.968,247017.439,247392.160,374.7,1.183,3.250,0.150,None,0,2026-07-14T15:14:59.7513585+02:00
pam,1,1,38,VT,1,slow,narrow,D5,250141.287,250141.287,251112.920,251765.861,252432.560,253099.276,253779.351,254446.072,255112.730,252432.560,252765.587,333.0,2.217,3.250,0.150,None,0,2026-07-14T15:15:06.5140166+02:00
pam,1,1,39,VT,1,fast,narrow,D7,256598.314,256598.314,256973.098,257223.567,257472.809,257722.849,257972.930,258222.903,258472.735,256973.098,257375.639,402.5,3.250,3.250,0.150,None,0,2026-07-14T15:15:09.8739691+02:00
pam,1,1,40,VT,1,slow,narrow,D1,260124.779,260124.779,261096.944,261749.688,262430.178,263083.174,263763.195,264429.523,265096.208,265096.208,263041.458,-2054.7,0.150,3.250,0.150,None,0,2026-07-14T15:15:16.4968736+02:00
pam,1,1,41,V,0,slow,narrow,,266679.453,266679.453,267651.725,268318.083,268984.544,269651.226,270317.538,270983.832,271650.424,,,,,3.250,0.150,None,0,2026-07-14T15:15:23.0515789+02:00
pam,1,1,42,T,0,slow,narrow,D3,273066.791,,,,,,,,,276705.178,,,1.183,3.250,0.150,None,0,2026-07-14T15:15:30.0645453+02:00
pam,1,1,43,T,0,fast,narrow,D7,279967.425,,,,,,,,,280342.403,,,3.250,3.250,0.150,None,0,2026-07-14T15:15:34.0910074+02:00
pam,1,1,44,VT,1,fast,narrow,D7,284328.388,284328.388,284703.098,284953.282,285203.038,285453.004,285703.109,285952.976,286189.271,284703.098,285356.009,652.9,3.250,3.250,0.150,None,0,2026-07-14T15:15:37.5905717+02:00
pam,1,1,45,VT,1,slow,narrow,D7,287980.414,287980.414,288952.340,289619.300,290285.644,290952.039,291618.726,292285.420,292951.571,288952.340,288994.200,41.9,3.250,3.250,0.150,None,0,2026-07-14T15:15:44.3527392+02:00
pam,1,1,46,T,1,fast,narrow,D2,294229.566,,,,,,,,,295853.929,296298.346,444.4,0.667,3.250,0.150,None,0,2026-07-14T15:15:47.6859272+02:00
pam,1,1,47,T,0,slow,narrow,D4,297562.020,,,,,,,,,300533.860,,,1.700,3.250,0.150,None,0,2026-07-14T15:15:54.9615585+02:00
pam,1,1,48,V,0,fast,narrow,,305129.962,305129.962,305504.919,305741.315,305991.117,306254.822,306491.161,306754.964,307004.628,,,,,3.250,0.150,None,0,2026-07-14T15:15:58.4052663+02:00
pam,1,1,49,VT,1,slow,narrow,D4,308435.336,308435.336,309407.095,310073.334,310740.047,311406.918,312073.501,312739.941,313406.187,311406.918,312170.480,763.6,1.700,3.250,0.150,None,0,2026-07-14T15:16:04.8072062+02:00
pam,1,1,50,T,1,slow,narrow,D5,314629.216,,,,,,,,,316934.138,317809.129,875.0,2.217,3.250,0.150,None,0,2026-07-14T15:16:11.0007093+02:00
pam,1,1,51,V,0,slow,narrow,,320905.411,320905.411,321877.452,322530.421,323363.646,323876.906,324543.642,325209.782,325876.531,,,,,3.250,0.150,None,0,2026-07-14T15:16:17.2772301+02:00
pam,1,1,52,T,1,slow,narrow,D1,327445.806,,,,,,,,,332417.053,333069.678,652.6,0.150,3.250,0.150,None,0,2026-07-14T15:16:24.4580234+02:00
pam,1,1,53,T,1,slow,narrow,D6,334486.093,,,,,,,,,336124.725,336763.435,638.7,2.733,3.250,0.150,None,0,2026-07-14T15:16:30.8586087+02:00
pam,1,1,54,VT,1,slow,narrow,D7,341248.920,341248.920,342220.880,342873.929,343540.672,344207.127,344873.992,345540.959,346207.310,342220.880,342845.947,625.1,3.250,3.250,0.150,None,0,2026-07-14T15:16:37.6082571+02:00
pam,1,1,55,VT,1,slow,narrow,D2,347637.690,347637.690,348609.949,349276.290,349929.108,350609.300,351275.932,351942.383,352608.777,351942.383,352497.865,555.5,0.667,3.250,0.150,None,0,2026-07-14T15:16:44.0097323+02:00
pam,1,1,56,VT,1,fast,narrow,D1,353844.495,353844.495,354219.133,354455.496,354718.712,354968.828,355219.083,355469.101,355718.827,355718.827,356107.587,388.8,0.150,3.250,0.150,None,0,2026-07-14T15:16:47.4955052+02:00
pam,1,1,57,V,0,slow,narrow,,357371.359,357371.359,358343.584,359010.080,359677.083,360343.278,361009.482,361676.814,362343.025,,,,,3.250,0.150,None,0,2026-07-14T15:16:53.7440160+02:00
pam,1,1,58,T,1,fast,narrow,D5,363662.386,,,,,,,,,364536.835,365148.332,611.5,2.217,3.250,0.150,None,0,2026-07-14T15:16:56.9374395+02:00
pam,1,1,59,VT,1,slow,narrow,D6,367327.738,367327.738,368299.898,368966.060,369619.238,370299.304,370965.975,371632.475,372299.153,368966.060,369702.524,736.5,2.733,3.250,0.150,None,0,2026-07-14T15:17:03.7004287+02:00
pam,1,1,60,T,1,slow,narrow,D7,373646.180,,,,,,,,,374617.979,375256.933,639.0,3.250,3.250,0.150,None,0,2026-07-14T15:17:10.0185705+02:00
pam,1,1,61,T,1,fast,narrow,D6,380089.598,,,,,,,,,380713.987,381422.857,708.9,2.733,3.250,0.150,None,0,2026-07-14T15:17:13.3650271+02:00
pam,1,1,62,VT,1,fast,narrow,D3,383200.196,383200.196,383575.230,383825.106,384075.146,384325.013,384575.143,384824.922,385074.892,384575.143,385213.677,638.5,1.183,3.250,0.150,None,0,2026-07-14T15:17:16.6015167+02:00
pam,1,1,63,VT,0,slow,narrow,D7,386810.697,386810.697,387783.067,388449.394,389115.653,389782.375,390448.888,391115.295,391781.756,387783.067,,,3.250,3.250,0.150,None,0,2026-07-14T15:17:23.9328020+02:00
pam,1,1,64,VT,1,fast,narrow,D3,394045.183,394045.183,394420.412,394656.333,394906.429,395170.072,395420.218,395669.998,395920.222,395420.218,395906.218,486.0,1.183,3.250,0.150,None,0,2026-07-14T15:17:27.3205958+02:00
pam,1,1,65,T,1,fast,narrow,D1,397461.560,,,,,,,,,399336.087,400085.900,749.8,0.150,3.250,0.150,None,0,2026-07-14T15:17:31.4735881+02:00
pam,1,1,66,T,1,slow,narrow,D1,401377.271,,,,,,,,,406348.599,407015.663,667.1,0.150,3.250,0.150,None,0,2026-07-14T15:17:38.4035934+02:00
pam,1,1,67,T,1,slow,narrow,D3,408432.017,,,,,,,,,412069.843,412667.147,597.3,1.183,3.250,0.150,None,0,2026-07-14T15:17:44.7903958+02:00
pam,1,1,68,VT,1,slow,narrow,D1,414652.614,414652.614,415624.795,416277.654,416957.904,417624.552,418291.250,418957.352,419624.105,419624.105,420055.178,431.1,0.150,3.250,0.150,None,0,2026-07-14T15:17:51.4430698+02:00
pam,1,1,69,V,1,slow,narrow,,421693.649,421693.649,422665.442,423318.201,423998.265,424665.059,425331.322,425998.175,426664.504,,424151.387,,,3.250,0.150,None,0,2026-07-14T15:17:58.0651130+02:00
pam,1,1,70,VT,1,fast,narrow,D1,428164.796,428164.796,428540.076,428789.795,429039.470,429289.576,429525.916,429789.560,430039.295,430039.295,430483.915,444.6,0.150,3.250,0.150,None,0,2026-07-14T15:18:01.8722518+02:00
pam,1,1,71,VT,1,slow,narrow,D5,431719.710,431719.710,432691.419,433357.995,434024.357,434691.124,435357.363,436023.923,436690.521,434024.357,434691.124,666.8,2.217,3.250,0.150,None,0,2026-07-14T15:18:08.0913550+02:00
pam,1,1,72,VT,1,fast,narrow,D3,437940.895,437940.895,438315.594,438551.985,438815.677,439065.535,439315.459,439565.618,439815.392,439315.459,439815.392,499.9,1.183,3.250,0.150,None,0,2026-07-14T15:18:11.2164036+02:00
pam,1,1,73,VT,1,fast,narrow,D2,441328.799,441328.799,441703.917,441953.675,442203.794,442453.919,442690.390,442953.823,443190.272,442953.823,443384.582,430.8,0.667,3.250,0.150,None,0,2026-07-14T15:18:14.7727382+02:00
pam,1,1,74,T,1,fast,narrow,D2,444828.644,,,,,,,,,446453.518,447369.741,916.2,0.667,3.250,0.150,None,0,2026-07-14T15:18:18.7578160+02:00
pam,1,1,75,VT,1,fast,narrow,D5,448952.710,448952.710,449327.838,449563.860,449813.908,450063.798,450327.640,450563.830,450827.499,449813.908,450591.433,777.5,2.217,3.250,0.150,None,0,2026-07-14T15:18:22.2291172+02:00
pam,1,1,76,T,1,slow,narrow,D5,452271.693,,,,,,,,,454715.273,455420.485,705.2,2.217,3.250,0.150,None,0,2026-07-14T15:18:28.7806024+02:00
pam,1,1,77,VT,1,slow,narrow,D5,458811.072,458811.072,459783.599,460450.444,461116.882,461783.249,462449.894,463116.216,463783.381,461116.882,461672.243,555.4,2.217,3.250,0.150,None,0,2026-07-14T15:18:35.1839141+02:00
pam,1,1,78,T,1,fast,narrow,D3,465532.816,,,,,,,,,466908.365,467477.319,569.0,1.183,3.250,0.150,None,0,2026-07-14T15:18:38.8654662+02:00
pam,1,1,79,T,1,slow,narrow,D3,469227.524,,,,,,,,,472865.644,473517.712,652.1,1.183,3.250,0.150,None,0,2026-07-14T15:18:45.5988638+02:00
pam,1,1,80,T,1,fast,narrow,D2,475475.340,,,,,,,,,477100.308,477892.247,791.9,0.667,3.250,0.150,None,0,2026-07-14T15:18:49.2850638+02:00
pam,1,1,81,T,1,fast,narrow,D5,479600.014,,,,,,,,,480474.671,481391.653,917.0,2.217,3.250,0.150,None,0,2026-07-14T15:18:52.8616799+02:00
pam,1,1,82,V,0,fast,narrow,,482793.952,482793.952,483168.736,483405.531,483668.898,483918.819,484168.836,484418.760,484668.576,,,,,3.250,0.150,None,0,2026-07-14T15:18:56.0692849+02:00
pam,1,1,83,VT,1,fast,narrow,D5,485987.532,485987.532,486362.579,486612.510,486862.461,487112.894,487362.291,487612.459,487862.092,486862.461,487418.452,556.0,2.217,3.250,0.150,None,0,2026-07-14T15:18:59.2628778+02:00
pam,1,1,84,T,1,fast,narrow,D5,489098.240,,,,,,,,,489973.093,490820.426,847.3,2.217,3.250,0.150,None,0,2026-07-14T15:19:02.3609628+02:00
pam,1,1,85,T,1,slow,narrow,D7,492486.966,,,,,,,,,493459.412,494250.057,790.6,3.250,3.250,0.150,None,0,2026-07-14T15:19:08.8600262+02:00
pam,1,1,86,V,0,slow,narrow,,499041.444,499041.444,500013.712,500666.738,501332.987,501999.859,502666.762,503333.636,503999.754,,,,,3.250,0.150,None,0,2026-07-14T15:19:15.4004953+02:00
pam,1,1,87,VT,0,fast,narrow,D6,505651.988,505651.988,506027.270,506263.514,506526.983,506776.513,507026.793,507277.030,507526.974,506263.514,,,2.733,3.250,0.150,None,0,2026-07-14T15:19:19.3197381+02:00
pam,1,1,88,T,1,slow,narrow,D4,509137.625,,,,,,,,,512108.683,512858.259,749.6,1.700,3.250,0.150,None,0,2026-07-14T15:19:25.5095953+02:00
pam,1,1,89,V,0,fast,narrow,,515732.920,515732.920,516107.792,516357.820,516607.688,516857.652,517107.445,517357.482,517607.124,,,,,3.250,0.150,None,0,2026-07-14T15:19:29.0082853+02:00
pam,1,1,90,VT,1,slow,narrow,D1,518885.111,518885.111,519857.049,520509.956,521190.205,521856.577,522523.444,523189.814,523856.000,523856.000,524300.441,444.4,0.150,3.250,0.150,None,0,2026-07-14T15:19:35.6884938+02:00
pam,1,1,91,VT,0,fast,narrow,D6,525744.760,525744.760,526119.498,526369.423,526606.038,526869.406,527105.857,527356.408,527606.384,526369.423,,,2.733,3.250,0.150,None,0,2026-07-14T15:19:39.7153180+02:00
pam,1,1,92,T,1,slow,narrow,D2,529980.740,,,,,,,,,534285.277,534924.066,638.8,0.667,3.250,0.150,None,0,2026-07-14T15:19:46.3395420+02:00
pam,1,1,93,V,0,fast,narrow,,536757.451,536757.451,537132.293,537368.545,537618.764,537882.205,538131.934,538381.662,538631.478,,,,,3.250,0.150,None,0,2026-07-14T15:19:50.0326511+02:00
pam,1,1,94,V,0,slow,narrow,,539992.202,539992.202,540964.216,541617.228,542297.407,542964.234,543630.924,544297.302,544963.232,,,,,3.250,0.150,None,0,2026-07-14T15:19:56.3642367+02:00
pam,1,1,95,T,1,slow,narrow,D1,546365.964,,,,,,,,,551337.281,551975.982,638.7,0.150,3.250,0.150,None,0,2026-07-14T15:20:03.3636243+02:00
pam,1,1,96,VT,1,fast,narrow,D4,553517.572,553517.572,553892.301,554128.427,554378.439,554628.540,554892.178,555128.395,555378.504,554628.540,555225.491,597.0,1.700,3.250,0.150,None,0,2026-07-14T15:20:06.7801537+02:00
pam,1,1,97,VT,1,fast,narrow,D4,557016.962,557016.962,557391.815,557641.918,557891.658,558142.583,558391.717,558641.846,558891.529,558142.583,558586.223,443.6,1.700,3.250,0.150,None,0,2026-07-14T15:20:10.2926029+02:00
pam,1,1,98,T,0,fast,narrow,D7,560502.429,,,,,,,,,560877.374,,,3.250,3.250,0.150,None,0,2026-07-14T15:20:14.4175710+02:00
pam,1,1,99,VT,1,slow,narrow,D1,564335.534,564335.534,565307.568,565974.042,566640.485,567293.629,567973.664,568640.270,569376.846,569376.846,569765.142,388.3,0.150,3.250,0.150,None,0,2026-07-14T15:20:21.1529745+02:00
pam,1,1,100,VT,1,slow,narrow,D2,571459.164,571459.164,572431.201,573098.225,573764.274,574431.231,575097.450,575763.998,576430.720,575763.998,576180.805,416.8,0.667,3.250,0.150,None,0,2026-07-14T15:20:27.8311014+02:00
pam,1,1,101,VT,1,fast,narrow,D5,578096.893,578096.893,578472.041,578722.057,578971.321,579221.481,579471.273,579721.206,579970.918,578971.321,579540.701,569.4,2.217,3.250,0.150,None,0,2026-07-14T15:20:31.3720335+02:00
pam,1,1,102,VT,1,fast,narrow,D1,581193.280,581193.280,581568.310,581818.136,582068.044,582318.192,582567.883,582818.674,583067.996,583067.996,583456.839,388.8,0.150,3.250,0.150,None,0,2026-07-14T15:20:34.8449172+02:00
pam,1,1,103,T,1,slow,narrow,D7,585165.020,,,,,,,,,586136.676,586845.097,708.4,3.250,3.250,0.150,None,0,2026-07-14T15:20:41.5240353+02:00
pam,1,1,104,T,1,fast,narrow,D4,591873.280,,,,,,,,,592997.877,593567.769,569.9,1.700,3.250,0.150,None,0,2026-07-14T15:20:45.1356951+02:00
pam,1,1,105,VT,1,slow,narrow,D3,595524.658,595524.658,596496.729,597149.652,597816.130,598496.376,599163.221,599829.565,600495.948,599163.221,599732.173,569.0,1.183,3.250,0.150,None,0,2026-07-14T15:20:51.8966755+02:00
pam,1,1,106,T,1,slow,narrow,D6,601787.237,,,,,,,,,603425.784,604147.795,722.0,2.733,3.250,0.150,None,0,2026-07-14T15:20:58.1598345+02:00
pam,1,1,107,VT,1,slow,narrow,D4,608022.434,608022.434,608994.236,609646.911,610327.546,610993.747,611660.355,612326.713,612993.337,610993.747,611590.811,597.1,1.700,3.250,0.150,None,0,2026-07-14T15:21:04.3942250+02:00
pam,1,1,108,VT,1,slow,narrow,D2,614784.748,614784.748,615757.112,616409.689,617089.932,617756.502,618422.693,619089.438,619755.888,619089.438,619700.270,610.8,0.667,3.250,0.150,None,0,2026-07-14T15:21:11.1568374+02:00
pam,1,1,109,T,1,slow,narrow,D6,621172.370,,,,,,,,,622811.024,623533.039,722.0,2.733,3.250,0.150,None,0,2026-07-14T15:21:17.5447256+02:00
pam,1,1,110,T,1,fast,narrow,D5,627949.360,,,,,,,,,628824.176,629505.069,680.9,2.217,3.250,0.150,None,0,2026-07-14T15:21:21.2116267+02:00
pam,1,1,111,VT,1,slow,narrow,D3,631422.214,631422.214,632394.189,633060.238,633726.607,634393.168,635059.582,635726.036,636392.780,635059.582,635615.120,555.5,1.183,3.250,0.150,None,0,2026-07-14T15:21:27.7934636+02:00
pam,1,1,112,VT,1,slow,narrow,D6,637753.333,637753.333,638725.720,639378.300,640058.715,640725.170,641391.621,642058.033,642725.046,639378.300,640031.041,652.7,2.733,3.250,0.150,None,0,2026-07-14T15:21:34.1254041+02:00
pam,1,1,113,VT,1,fast,narrow,D5,644099.481,644099.481,644474.131,644724.032,644974.303,645223.875,645473.975,645723.825,645974.116,644974.303,645460.129,485.8,2.217,3.250,0.150,None,0,2026-07-14T15:21:37.3745070+02:00
pam,1,1,114,T,1,slow,narrow,D7,647709.772,,,,,,,,,648682.172,649279.508,597.3,3.250,3.250,0.150,None,0,2026-07-14T15:21:44.0819802+02:00
pam,1,1,115,V,0,fast,narrow,,654125.611,654125.611,654500.612,654750.393,655000.731,655250.493,655500.692,655750.554,656000.351,,,,,3.250,0.150,None,0,2026-07-14T15:21:47.4017414+02:00
pam,1,1,116,V,0,slow,narrow,,657361.180,657361.180,658333.557,658986.345,659666.389,660333.039,660999.067,661665.912,662332.476,,,,,3.250,0.150,None,0,2026-07-14T15:21:53.7332548+02:00
pam,1,1,117,T,1,fast,narrow,D1,664082.110,,,,,,,,,665956.706,666553.801,597.1,0.150,3.250,0.150,None,0,2026-07-14T15:21:57.9412239+02:00
pam,1,1,118,T,1,fast,narrow,D3,668123.016,,,,,,,,,669498.142,670289.524,791.4,1.183,3.250,0.150,None,0,2026-07-14T15:22:01.6777337+02:00
pam,1,1,119,VT,1,fast,narrow,D3,672094.566,672094.566,672469.391,672705.723,672969.376,673219.323,673469.239,673705.472,673955.705,673469.239,674052.882,583.6,1.183,3.250,0.150,None,0,2026-07-14T15:22:05.4407534+02:00
pam,1,1,120,T,1,slow,narrow,D1,675815.944,,,,,,,,,680787.768,681412.435,624.7,0.150,3.250,0.150,None,0,2026-07-14T15:22:12.8006700+02:00
pam,1,1,121,VT,1,slow,narrow,D3,682870.399,682870.399,683842.294,684508.723,685175.375,685841.928,686508.452,687175.171,687841.725,686508.452,687202.927,694.5,1.183,3.250,0.150,None,0,2026-07-14T15:22:19.2424466+02:00
pam,1,1,122,V,0,fast,narrow,,689271.691,689271.691,689646.840,689882.982,690132.939,690396.636,690646.825,690882.914,691146.600,,,,,3.250,0.150,None,0,2026-07-14T15:22:22.5474316+02:00
pam,1,1,123,V,0,fast,narrow,,692605.210,692605.210,693132.936,693382.935,693633.086,693882.920,694132.903,694382.746,694632.597,,,,,3.250,0.150,None,0,2026-07-14T15:22:26.0332937+02:00
pam,1,1,124,VT,1,slow,narrow,D4,696230.059,696230.059,697202.455,697868.802,698535.498,699201.971,699868.253,700535.159,701201.216,699201.971,699798.962,597.0,1.700,3.250,0.150,None,0,2026-07-14T15:22:32.6020409+02:00
pam,1,1,125,VT,0,slow,narrow,D5,702478.630,702478.630,703450.810,704103.732,704783.786,705450.200,706117.111,706783.355,707449.838,704783.786,,,2.217,3.250,0.150,None,0,2026-07-14T15:22:39.6423950+02:00
pam,1,1,126,T,1,slow,narrow,D5,709657.895,,,,,,,,,711962.938,712615.882,652.9,2.217,3.250,0.150,None,0,2026-07-14T15:22:46.0296889+02:00
pam,1,1,127,VT,1,fast,narrow,D2,715878.963,715878.963,716254.034,716503.952,716754.025,717004.094,717253.732,717504.188,717753.990,717504.188,717337.309,-166.9,0.667,3.250,0.150,None,0,2026-07-14T15:22:49.1547599+02:00
pam,1,1,128,T,0,fast,narrow,D7,719128.104,,,,,,,,,719503.243,,,3.250,3.250,0.150,None,0,2026-07-14T15:22:52.8063825+02:00
pam,1,1,129,V,0,slow,narrow,,722683.065,722683.065,723655.178,724321.555,724988.447,725654.631,726321.072,726987.855,727654.292,,,,,3.250,0.150,None,0,2026-07-14T15:22:59.2407859+02:00
pam,1,1,130,VT,1,fast,narrow,D2,728918.037,728918.037,729292.482,729528.669,729778.860,730028.895,730292.418,730542.406,730792.338,730542.406,730945.093,402.7,0.667,3.250,0.150,None,0,2026-07-14T15:23:02.3334275+02:00
pam,1,1,131,T,1,fast,narrow,D4,732556.098,,,,,,,,,733680.794,734375.047,694.3,1.700,3.250,0.150,None,0,2026-07-14T15:23:05.8314384+02:00
pam,1,1,132,V,0,fast,narrow,,736069.409,736069.409,736444.003,736693.916,736930.272,737180.308,737443.729,737694.116,737943.952,,,,,3.250,0.150,None,0,2026-07-14T15:23:09.3447030+02:00
pam,1,1,133,VT,1,fast,narrow,D3,739596.546,739596.546,739971.344,740207.725,740471.352,740707.681,740971.034,741221.480,741471.136,740971.034,741429.848,458.8,1.183,3.250,0.150,None,0,2026-07-14T15:23:12.8720727+02:00
pam,1,1,134,T,1,fast,narrow,D3,742749.002,,,,,,,,,744123.602,744776.702,653.1,1.183,3.250,0.150,None,0,2026-07-14T15:23:16.1645067+02:00
pam,1,1,135,VT,1,slow,narrow,D2,746179.047,746179.047,747151.410,747803.894,748484.214,749150.780,749817.103,750484.089,751150.015,750484.089,750983.503,499.4,0.667,3.250,0.150,None,0,2026-07-14T15:23:22.5512226+02:00
pam,1,1,136,VT,1,fast,narrow,D7,752857.844,752857.844,753232.847,753482.699,753732.876,753982.693,754232.854,754482.682,754745.452,753232.847,754121.431,888.6,3.250,3.250,0.150,None,0,2026-07-14T15:23:26.1452448+02:00
pam,1,1,137,V,0,fast,narrow,,756161.446,756161.446,756536.427,756772.979,757022.949,757273.349,757523.217,757773.374,758023.466,,,,,3.250,0.150,None,0,2026-07-14T15:23:29.4245614+02:00
pam,1,1,138,V,0,slow,narrow,,759412.647,759412.647,760384.107,761037.037,761703.821,762384.235,763037.121,763717.350,764383.725,,,,,3.250,0.150,None,0,2026-07-14T15:23:35.7850468+02:00
pam,1,1,139,VT,1,fast,narrow,D2,765647.662,765647.662,766022.315,766258.708,766522.185,766772.370,767022.236,767258.563,767508.606,767258.563,767661.291,402.7,0.667,3.250,0.150,None,0,2026-07-14T15:23:39.0494297+02:00
pam,1,1,140,V,0,slow,narrow,,769105.485,769105.485,770077.569,770743.976,771410.486,772077.245,772743.290,773410.316,774076.584,,,,,3.250,0.150,None,0,2026-07-14T15:23:45.4773963+02:00
pam,1,1,141,VT,1,fast,narrow,D2,775604.069,775604.069,775978.754,776215.171,776465.527,776728.958,776978.970,777228.770,777478.980,777228.770,777659.214,430.4,0.667,3.250,0.150,None,0,2026-07-14T15:23:49.0472756+02:00
pam,1,1,142,T,1,fast,narrow,D4,779325.460,,,,,,,,,780450.388,781450.154,999.8,1.700,3.250,0.150,None,0,2026-07-14T15:23:52.8383093+02:00
pam,1,1,143,VT,1,fast,narrow,D4,783061.364,783061.364,783435.978,783685.871,783936.049,784172.495,784435.605,784685.704,784936.031,784172.495,784769.128,596.6,1.700,3.250,0.150,None,0,2026-07-14T15:23:56.3364768+02:00
pam,1,1,144,V,0,fast,narrow,,786588.442,786588.442,786963.251,787213.025,787462.810,787712.736,787963.109,788212.716,788462.586,,,,,3.250,0.150,None,0,2026-07-14T15:23:59.8631026+02:00
pam,1,1,145,VT,1,fast,narrow,D5,789949.151,789949.151,790323.659,790560.042,790823.490,791059.787,791323.348,791573.562,791823.377,790823.490,791254.258,430.8,2.217,3.250,0.150,None,0,2026-07-14T15:24:03.2243750+02:00
pam,1,1,146,T,1,fast,narrow,D3,793142.350,,,,,,,,,794517.262,795030.916,513.7,1.183,3.250,0.150,None,0,2026-07-14T15:24:06.4189768+02:00
pam,1,1,147,VT,1,slow,narrow,D7,796517.016,796517.016,797489.250,798155.988,798822.243,799488.558,800155.252,800821.750,801488.260,797489.250,798155.988,666.7,3.250,3.250,0.150,None,0,2026-07-14T15:24:12.8890357+02:00
pam,1,1,148,T,1,slow,narrow,D2,802780.166,,,,,,,,,807084.608,807723.597,639.0,0.667,3.250,0.150,None,0,2026-07-14T15:24:19.1386561+02:00
pam,1,1,149,T,1,slow,narrow,D6,809473.464,,,,,,,,,811111.407,811792.244,680.8,2.733,3.250,0.150,None,0,2026-07-14T15:24:25.8449902+02:00
pam,1,1,150,T,1,fast,narrow,D6,815694.148,,,,,,,,,816319.218,816930.243,611.0,2.733,3.250,0.150,None,0,2026-07-14T15:24:28.9698583+02:00
pam,1,1,151,T,1,fast,narrow,D7,819207.344,,,,,,,,,819582.428,820290.556,708.1,3.250,3.250,0.150,None,0,2026-07-14T15:24:32.4822276+02:00
pam,1,1,152,VT,1,slow,narrow,D6,822345.807,822345.807,823317.687,823984.387,824651.169,825317.309,825984.235,826650.465,827317.149,823984.387,824692.532,708.1,2.733,3.250,0.150,None,0,2026-07-14T15:24:38.7183994+02:00
pam,1,1,153,T,1,fast,narrow,D2,828941.769,,,,,,,,,830566.493,831552.524,986.0,0.667,3.250,0.150,None,0,2026-07-14T15:24:42.9406647+02:00
pam,1,1,154,V,0,fast,narrow,,832899.442,832899.442,833274.347,833510.995,833774.125,834010.543,834274.317,834524.186,834774.187,,,,,3.250,0.150,None,0,2026-07-14T15:24:46.1752463+02:00
pam,1,2,1,VT,1,fast,narrow,D2,843911.513,843911.513,844286.420,844536.549,844786.161,845036.256,845286.096,845536.190,845785.976,845536.190,846299.975,763.8,0.667,3.250,0.150,None,0,2026-07-14T15:24:57.6880514+02:00
pam,1,2,2,VT,0,slow,narrow,D6,847994.647,847994.647,848966.781,849619.526,850299.844,850966.466,851632.944,852299.454,852966.082,849619.526,,,2.733,3.250,0.150,None,0,2026-07-14T15:25:05.0058424+02:00
pam,1,2,3,T,1,slow,narrow,D4,854854.438,,,,,,,,,857826.270,858604.262,778.0,1.700,3.250,0.150,None,0,2026-07-14T15:25:11.2261148+02:00
pam,1,2,4,VT,1,slow,narrow,D1,861269.818,861269.818,862241.779,862908.335,863574.937,864241.423,864907.830,865574.242,866240.926,866240.926,866699.366,458.4,0.150,3.250,0.150,None,0,2026-07-14T15:25:18.0872378+02:00
pam,1,2,5,T,1,slow,narrow,D6,868268.542,,,,,,,,,869907.035,870587.470,680.4,2.733,3.250,0.150,None,0,2026-07-14T15:25:24.6275001+02:00
pam,1,2,6,V,0,fast,narrow,,874698.430,874698.430,875073.559,875323.269,875573.346,875823.418,876059.494,876323.428,876573.479,,,,,3.250,0.150,None,0,2026-07-14T15:25:27.9748851+02:00
pam,1,2,7,T,1,slow,narrow,D1,878239.559,,,,,,,,,883210.913,883863.739,652.8,0.150,3.250,0.150,None,0,2026-07-14T15:25:35.2514961+02:00
pam,1,2,8,VT,1,fast,narrow,D3,885197.195,885197.195,885572.048,885822.135,886072.153,886321.726,886571.875,886821.760,887071.813,886571.875,887168.948,597.1,1.183,3.250,0.150,None,0,2026-07-14T15:25:38.5569683+02:00
pam,1,2,9,VT,1,fast,narrow,D5,888668.574,888668.574,889043.619,889279.757,889543.253,889793.331,890043.610,890293.161,890543.262,889543.253,890265.440,722.2,2.217,3.250,0.150,None,0,2026-07-14T15:25:41.9438816+02:00
pam,1,2,10,T,1,fast,narrow,D7,892084.492,,,,,,,,,892459.665,893153.623,694.0,3.250,3.250,0.150,None,0,2026-07-14T15:25:45.3599849+02:00
pam,1,2,11,VT,1,slow,narrow,D2,895278.187,895278.187,896250.383,896916.658,897583.212,898249.541,898916.191,899582.766,900249.149,899582.766,900054.824,472.1,0.667,3.250,0.150,None,0,2026-07-14T15:25:51.6497363+02:00
pam,1,2,12,T,1,fast,narrow,D5,902040.862,,,,,,,,,902915.318,903637.578,722.3,2.217,3.250,0.150,None,0,2026-07-14T15:25:55.3169418+02:00
pam,1,2,13,VT,1,slow,narrow,D6,905428.693,905428.693,906400.657,907053.256,907733.893,908400.650,909053.395,909733.322,910399.782,907053.256,907650.617,597.4,2.733,3.250,0.150,None,0,2026-07-14T15:26:01.8010245+02:00
pam,1,2,14,VT,1,slow,narrow,D6,911663.088,911663.088,912635.718,913288.559,913955.865,914622.089,915288.752,915954.870,916621.935,913288.559,913844.338,555.8,2.733,3.250,0.150,None,0,2026-07-14T15:26:08.0223393+02:00
pam,1,2,15,VT,1,slow,narrow,D2,917996.291,917996.291,918968.314,919621.378,920301.349,920967.805,921634.557,922300.958,922967.756,922300.958,922745.268,444.3,0.667,3.250,0.150,None,0,2026-07-14T15:26:14.3688949+02:00
pam,1,2,16,VT,1,slow,narrow,D4,924217.593,924217.593,925190.175,925843.353,926509.728,927190.108,927856.218,928522.701,929189.179,927190.108,928203.961,1013.9,1.700,3.250,0.150,None,0,2026-07-14T15:26:20.5905683+02:00
pam,1,2,17,VT,1,slow,narrow,D5,930897.668,930897.668,931869.627,932535.817,933202.332,933868.840,934535.309,935201.746,935868.093,933202.332,933674.867,472.5,2.217,3.250,0.150,None,0,2026-07-14T15:26:27.2692476+02:00
pam,1,2,18,VT,1,fast,narrow,D6,937631.765,937631.765,938006.449,938242.705,938492.580,938756.736,939006.343,939256.177,939506.138,938242.705,938881.423,638.7,2.733,3.250,0.150,None,0,2026-07-14T15:26:30.9066844+02:00
pam,1,2,19,T,0,fast,narrow,D4,941242.073,,,,,,,,,942367.199,,,1.700,3.250,0.150,None,0,2026-07-14T15:26:35.4070503+02:00
pam,1,2,20,V,0,fast,narrow,,945672.485,945672.485,946047.535,946283.725,946547.669,946797.518,947047.357,947297.118,947547.103,,,,,3.250,0.150,None,0,2026-07-14T15:26:38.9481755+02:00
pam,1,2,21,VT,1,fast,narrow,D3,949227.386,949227.386,949602.145,949852.080,950101.879,950352.159,950588.511,950852.269,951102.057,950588.511,951004.797,416.3,1.183,3.250,0.150,None,0,2026-07-14T15:26:42.5032218+02:00
pam,1,2,22,T,0,fast,narrow,D4,952823.633,,,,,,,,,953948.580,,,1.700,3.250,0.150,None,0,2026-07-14T15:26:46.8769905+02:00
pam,1,2,23,T,0,slow,narrow,D7,957267.281,,,,,,,,,958239.668,,,3.250,3.250,0.150,None,0,2026-07-14T15:26:54.0423152+02:00
pam,1,2,24,VT,1,fast,narrow,D1,964265.824,964265.824,964640.664,964876.828,965126.949,965390.583,965640.325,965890.314,966140.269,966140.269,966584.611,444.3,0.150,3.250,0.150,None,0,2026-07-14T15:26:57.9728632+02:00
pam,1,2,25,T,1,fast,narrow,D1,967876.389,,,,,,,,,969751.164,970667.583,916.4,0.150,3.250,0.150,None,0,2026-07-14T15:27:02.0556122+02:00
pam,1,2,26,V,0,slow,narrow,,971930.941,971930.941,972903.083,973555.862,974235.994,974889.231,975556.013,976236.080,976902.692,,,,,3.250,0.150,None,0,2026-07-14T15:27:08.3033901+02:00
pam,1,2,27,VT,1,slow,narrow,D2,978305.239,978305.239,979277.237,979930.021,980610.238,981276.692,981943.481,982609.998,983276.518,982609.998,983081.998,472.0,0.667,3.250,0.150,None,0,2026-07-14T15:27:14.6775907+02:00
pam,1,2,28,VT,1,slow,narrow,D7,984525.970,984525.970,985498.207,986164.664,986817.577,987498.048,988164.498,988831.159,989497.402,985498.207,986317.279,819.1,3.250,3.250,0.150,None,0,2026-07-14T15:27:20.8983787+02:00
pam,1,2,29,T,1,slow,narrow,D7,991219.624,,,,,,,,,992387.587,992927.812,540.2,3.250,3.250,0.150,None,0,2026-07-14T15:27:27.7860682+02:00
pam,1,2,30,V,1,slow,narrow,,997621.042,997621.042,998593.388,999260.169,999913.065,1000579.924,1001246.330,1001926.633,1002592.987,,1002329.541,,,3.250,0.150,None,0,2026-07-14T15:27:33.9939442+02:00
pam,1,2,31,T,1,fast,narrow,D7,1004037.026,,,,,,,,,1004412.043,1005009.127,597.1,3.250,3.250,0.150,None,0,2026-07-14T15:27:37.3123273+02:00
pam,1,2,32,V,1,fast,narrow,,1007216.649,1007216.649,1007591.745,1007827.914,1008078.188,1008328.015,1008577.800,1008828.251,1009092.059,,1008843.489,,,3.250,0.150,None,0,2026-07-14T15:27:40.4935486+02:00
pam,1,2,33,V,0,fast,narrow,,1010785.604,1010785.604,1011160.827,1011410.475,1011660.483,1011910.693,1012160.645,1012410.673,1012660.379,,,,,3.250,0.150,None,0,2026-07-14T15:27:44.0611551+02:00
pam,1,2,34,VT,1,fast,narrow,D5,1013910.191,1013910.191,1014284.992,1014521.345,1014784.436,1015034.679,1015284.497,1015534.370,1015784.576,1014784.436,1015326.020,541.6,2.217,3.250,0.150,None,0,2026-07-14T15:27:47.1855315+02:00
pam,1,2,35,T,1,slow,narrow,D5,1017048.297,,,,,,,,,1019354.182,1019951.311,597.1,2.217,3.250,0.150,None,0,2026-07-14T15:27:53.4210676+02:00
pam,1,2,36,V,0,fast,narrow,,1023353.520,1023353.520,1023728.394,1023978.268,1024228.328,1024464.485,1024727.817,1024977.896,1025227.438,,,,,3.250,0.150,None,0,2026-07-14T15:27:56.6285121+02:00
pam,1,2,37,T,1,fast,narrow,D7,1026685.737,,,,,,,,,1027060.799,1027560.903,500.1,3.250,3.250,0.150,None,0,2026-07-14T15:27:59.9479718+02:00
pam,1,2,38,VT,1,fast,narrow,D7,1030240.967,1030240.967,1030615.626,1030865.693,1031115.687,1031351.982,1031615.484,1031865.656,1032115.230,1030615.626,1031240.553,624.9,3.250,3.250,0.150,None,0,2026-07-14T15:28:03.5164530+02:00
pam,1,2,39,VT,1,fast,narrow,D4,1033559.583,1033559.583,1033934.352,1034184.616,1034420.576,1034684.316,1034934.089,1035184.478,1035434.123,1034684.316,1035239.928,555.6,1.700,3.250,0.150,None,0,2026-07-14T15:28:06.8349513+02:00
pam,1,2,40,V,0,slow,narrow,,1036906.192,1036906.192,1037878.059,1038544.554,1039211.272,1039877.819,1040544.408,1041210.762,1041877.441,,,,,3.250,0.150,None,0,2026-07-14T15:28:13.2783483+02:00
pam,1,2,41,T,1,slow,narrow,D5,1043585.851,,,,,,,,,1045890.452,1046390.430,500.0,2.217,3.250,0.150,None,0,2026-07-14T15:28:19.9581295+02:00
pam,1,2,42,VT,1,slow,narrow,D2,1050306.554,1050306.554,1051278.730,1051945.307,1052611.976,1053278.535,1053944.910,1054773.095,1055273.698,1054773.095,1055217.974,444.9,0.667,3.250,0.150,None,0,2026-07-14T15:28:26.6749846+02:00
pam,1,2,43,VT,1,fast,narrow,D6,1056664.139,1056664.139,1057039.376,1057275.783,1057526.301,1057776.096,1058026.002,1058276.190,1058526.197,1057275.783,1057790.163,514.4,2.733,3.250,0.150,None,0,2026-07-14T15:28:29.9275876+02:00
pam,1,2,44,VT,1,slow,narrow,D6,1060013.003,1060013.003,1060984.890,1061637.776,1062318.436,1062984.538,1063637.811,1064317.502,1064984.200,1061637.776,1062137.985,500.2,2.733,3.250,0.150,None,0,2026-07-14T15:28:36.3848279+02:00
pam,1,2,45,VT,1,fast,narrow,D1,1066595.181,1066595.181,1066970.071,1067219.949,1067470.082,1067720.099,1067970.218,1068219.921,1068469.723,1068469.723,1068830.727,361.0,0.150,3.250,0.150,None,0,2026-07-14T15:28:40.2188662+02:00
pam,1,2,46,V,0,fast,narrow,,1070108.335,1070108.335,1070483.306,1070733.505,1070983.209,1071233.062,1071483.036,1071733.169,1071982.969,,,,,3.250,0.150,None,0,2026-07-14T15:28:43.3833712+02:00
pam,1,2,47,VT,1,slow,narrow,D1,1073260.525,1073260.525,1074232.609,1074899.080,1075565.786,1076232.302,1076898.954,1077565.053,1078231.710,1078231.710,1078579.222,347.5,0.150,3.250,0.150,None,0,2026-07-14T15:28:49.9671273+02:00
pam,1,2,48,VT,1,fast,narrow,D7,1080231.663,1080231.663,1080606.714,1080856.476,1081106.675,1081356.640,1081606.487,1081856.663,1082106.362,1080606.714,1081231.499,624.8,3.250,3.250,0.150,None,0,2026-07-14T15:28:53.5071829+02:00
pam,1,2,49,V,0,fast,narrow,,1083773.003,1083773.003,1084147.949,1084383.964,1084633.906,1084883.896,1085133.919,1085397.575,1085647.706,,,,,3.250,0.150,None,0,2026-07-14T15:28:57.0484568+02:00
pam,1,2,50,T,1,slow,narrow,D1,1086911.952,,,,,,,,,1091882.657,1092216.109,333.5,0.150,3.250,0.150,None,0,2026-07-14T15:29:03.6040519+02:00
pam,1,2,51,V,0,slow,narrow,,1093965.657,1093965.657,1094937.530,1095603.888,1096270.661,1096937.121,1097603.757,1098270.120,1098936.873,,,,,3.250,0.150,None,0,2026-07-14T15:29:10.3382145+02:00
pam,1,2,52,V,0,fast,narrow,,1100700.147,1100700.147,1101075.041,1101311.381,1101561.345,1101825.245,1102075.105,1102325.007,1102561.198,,,,,3.250,0.150,None,0,2026-07-14T15:29:13.9761272+02:00
pam,1,2,53,T,1,slow,narrow,D3,1104310.715,,,,,,,,,1107950.056,1108505.643,555.6,1.183,3.250,0.150,None,0,2026-07-14T15:29:20.6839254+02:00
pam,1,2,54,T,0,fast,narrow,D4,1110644.374,,,,,,,,,1111769.553,,,1.700,3.250,0.150,None,0,2026-07-14T15:29:24.7810464+02:00
pam,1,2,55,VT,1,fast,narrow,D3,1114768.587,1114768.587,1115142.678,1115379.513,1115629.442,1115879.004,1116129.019,1116378.969,1116629.098,1116129.019,1117115.164,986.1,1.183,3.250,0.150,None,0,2026-07-14T15:29:28.5029341+02:00
pam,1,2,56,VT,1,slow,narrow,D7,1118711.704,1118711.704,1119683.479,1120350.245,1121016.621,1121682.932,1122349.928,1123016.090,1123682.747,1119683.479,1120363.695,680.2,3.250,3.250,0.150,None,0,2026-07-14T15:29:35.0835091+02:00
pam,1,2,57,VT,1,slow,narrow,D5,1125418.662,1125418.662,1126389.957,1127043.144,1127723.586,1128389.897,1129056.534,1129710.216,1130389.898,1127723.586,1128167.868,444.3,2.217,3.250,0.150,None,0,2026-07-14T15:29:41.7910588+02:00
pam,1,2,58,VT,1,slow,narrow,D3,1131819.949,1131819.949,1132792.086,1133458.519,1134125.312,1134791.875,1135458.046,1136124.725,1136791.310,1135458.046,1135930.671,472.6,1.183,3.250,0.150,None,0,2026-07-14T15:29:48.1922672+02:00
pam,1,2,59,VT,1,slow,narrow,D4,1138166.482,1138166.482,1139138.419,1139804.851,1140471.913,1141138.194,1141804.662,1142471.188,1143137.952,1141138.194,1141624.161,486.0,1.700,3.250,0.150,None,0,2026-07-14T15:29:54.5391016+02:00
pam,1,2,60,T,1,slow,narrow,D1,1144679.008,,,,,,,,,1149649.746,1150080.237,430.5,0.150,3.250,0.150,None,0,2026-07-14T15:30:01.4685586+02:00
pam,1,2,61,T,1,slow,narrow,D4,1151358.797,,,,,,,,,1154329.980,1154747.147,417.2,1.700,3.250,0.150,None,0,2026-07-14T15:30:07.7177189+02:00
pam,1,2,62,T,1,slow,narrow,D2,1157955.888,,,,,,,,,1162260.436,1161357.812,-902.6,0.667,3.250,0.150,None,0,2026-07-14T15:30:14.3280303+02:00
pam,1,2,63,VT,1,slow,narrow,D5,1164371.594,1164371.594,1165343.377,1166011.069,1166676.455,1167343.134,1168009.695,1168676.623,1169343.062,1166676.455,1167162.631,486.2,2.217,3.250,0.150,None,0,2026-07-14T15:30:20.7438601+02:00
pam,1,2,64,VT,1,fast,narrow,D6,1170842.765,1170842.765,1171217.739,1171467.429,1171717.443,1171967.416,1172217.356,1172467.207,1172717.182,1171467.429,1171981.231,513.8,2.733,3.250,0.150,None,0,2026-07-14T15:30:24.1192699+02:00
pam,1,2,65,VT,1,fast,narrow,D3,1174022.254,1174022.254,1174396.834,1174633.026,1174897.049,1175132.829,1175396.416,1175646.450,1175882.861,1175396.416,1175854.929,458.5,1.183,3.250,0.150,None,0,2026-07-14T15:30:27.2835356+02:00
pam,1,2,66,V,0,slow,narrow,,1177104.440,1177104.440,1178075.967,1178728.770,1179395.498,1180062.061,1180728.688,1181395.672,1182075.652,,,,,3.250,0.150,None,0,2026-07-14T15:30:33.4769185+02:00
pam,1,2,67,VT,1,fast,narrow,D3,1183395.219,1183395.219,1183770.279,1184006.640,1184270.596,1184506.570,1184756.555,1185006.764,1185256.774,1184756.555,1185367.805,611.3,1.183,3.250,0.150,None,0,2026-07-14T15:30:36.7557877+02:00
pam,1,2,68,T,1,fast,narrow,D3,1186839.867,,,,,,,,,1188214.581,1188950.466,735.9,1.183,3.250,0.150,None,0,2026-07-14T15:30:40.3385220+02:00
pam,1,2,69,T,1,fast,narrow,D1,1190158.638,,,,,,,,,1192032.525,1192879.269,846.7,0.150,3.250,0.150,None,0,2026-07-14T15:30:44.2669920+02:00
pam,1,2,70,T,1,fast,narrow,D2,1194115.294,,,,,,,,,1195740.728,1196601.163,860.4,0.667,3.250,0.150,None,0,2026-07-14T15:30:47.9893145+02:00
pam,1,2,71,T,1,slow,narrow,D5,1198198.323,,,,,,,,,1200502.887,1201377.774,874.9,2.217,3.250,0.150,None,0,2026-07-14T15:30:54.5698900+02:00
pam,1,2,72,VT,1,slow,narrow,D4,1204404.508,1204404.508,1205376.487,1206043.038,1206709.736,1207362.928,1208042.974,1208709.586,1209375.821,1207362.928,1208126.235,763.3,1.700,3.250,0.150,None,0,2026-07-14T15:31:00.7772288+02:00
pam,1,2,73,T,0,fast,narrow,D4,1210917.528,,,,,,,,,1212042.193,,,1.700,3.250,0.150,None,0,2026-07-14T15:31:05.0266395+02:00
pam,1,2,74,T,0,fast,narrow,D5,1215111.337,,,,,,,,,1215986.077,,,2.217,3.250,0.150,None,0,2026-07-14T15:31:09.0807689+02:00
pam,1,2,75,VT,1,slow,narrow,D1,1219457.462,1219457.462,1220429.535,1221082.589,1221749.247,1222416.149,1223082.474,1223749.318,1224415.927,1224415.927,1224832.249,416.3,0.150,3.250,0.150,None,0,2026-07-14T15:31:16.2208261+02:00
pam,1,2,76,T,0,slow,narrow,D6,1226554.021,,,,,,,,,1228192.680,,,2.733,3.250,0.150,None,0,2026-07-14T15:31:23.5381261+02:00
pam,1,2,77,T,1,fast,narrow,D2,1233691.750,,,,,,,,,1235316.321,1235996.667,680.3,0.667,3.250,0.150,None,0,2026-07-14T15:31:27.3842898+02:00
pam,1,2,78,T,1,fast,narrow,D6,1237510.323,,,,,,,,,1238135.242,1238843.214,708.0,2.733,3.250,0.150,None,0,2026-07-14T15:31:30.7856176+02:00
pam,1,2,79,V,0,slow,narrow,,1240620.995,1240620.995,1241593.166,1242260.112,1242926.419,1243592.980,1244259.463,1244925.758,1245592.592,,,,,3.250,0.150,None,0,2026-07-14T15:31:36.9931768+02:00
pam,1,2,80,VT,1,slow,narrow,D5,1246829.005,1246829.005,1247800.103,1248466.725,1249133.430,1249786.399,1250466.495,1251133.050,1251799.582,1249133.430,1249716.809,583.4,2.217,3.250,0.150,None,0,2026-07-14T15:31:43.2011894+02:00
pam,1,2,81,VT,1,slow,narrow,D3,1253604.831,1253604.831,1254577.534,1255230.342,1255896.873,1256577.103,1257243.811,1257910.514,1258576.841,1257243.811,1257785.178,541.4,1.183,3.250,0.150,None,0,2026-07-14T15:31:49.9777656+02:00
pam,1,2,82,VT,1,fast,narrow,D7,1260131.916,1260131.916,1260506.512,1260742.991,1261006.638,1261243.083,1261493.095,1261756.573,1262006.443,1260506.512,1261145.611,639.1,3.250,3.250,0.150,None,0,2026-07-14T15:31:53.4072948+02:00
pam,1,2,83,T,1,fast,narrow,D6,1263408.564,,,,,,,,,1264033.410,1264728.354,694.9,2.733,3.250,0.150,None,0,2026-07-14T15:31:56.6846004+02:00
pam,1,2,84,VT,1,fast,narrow,D7,1266949.819,1266949.819,1267324.602,1267560.601,1267810.532,1268060.622,1268324.272,1268574.307,1268824.246,1267324.602,1267894.200,569.6,3.250,3.250,0.150,None,0,2026-07-14T15:32:00.2251044+02:00
pam,1,2,85,T,1,slow,narrow,D7,1270115.783,,,,,,,,,1271087.581,1271337.544,250.0,3.250,3.250,0.150,None,0,2026-07-14T15:32:06.4877235+02:00
pam,1,2,86,T,1,slow,narrow,D4,1276586.827,,,,,,,,,1279558.993,1280184.025,625.0,1.700,3.250,0.150,None,0,2026-07-14T15:32:12.9594303+02:00
pam,1,2,87,VT,1,fast,narrow,D4,1282960.645,1282960.645,1283335.495,1283585.430,1283835.285,1284085.465,1284335.007,1284585.175,1284835.355,1284085.465,1284668.466,583.0,1.700,3.250,0.150,None,0,2026-07-14T15:32:16.2358290+02:00
pam,1,2,88,V,0,slow,narrow,,1286390.833,1286390.833,1287363.473,1288030.863,1288695.706,1289362.321,1290028.914,1290695.654,1291362.459,,,,,3.250,0.150,None,0,2026-07-14T15:32:22.7635360+02:00
pam,1,2,89,VT,1,fast,narrow,D2,1293056.623,1293056.623,1293431.472,1293681.166,1293931.331,1294181.246,1294431.351,1294681.233,1294931.096,1294681.233,1295208.835,527.6,0.667,3.250,0.150,None,0,2026-07-14T15:32:26.5971197+02:00
pam,1,2,90,VT,1,slow,narrow,D5,1296666.705,1296666.705,1297638.698,1298305.016,1298971.898,1299638.430,1300291.464,1300958.290,1301638.407,1298971.898,1299694.183,722.3,2.217,3.250,0.150,None,0,2026-07-14T15:32:33.0393291+02:00
pam,1,2,91,V,0,slow,narrow,,1303055.135,1303055.135,1304026.766,1304693.102,1305359.816,1306026.343,1306692.973,1307359.584,1308026.096,,,,,3.250,0.150,None,0,2026-07-14T15:32:39.4269282+02:00
pam,1,2,92,VT,1,fast,narrow,D6,1309275.755,1309275.755,1309650.543,1309900.128,1310150.197,1310400.567,1310650.207,1310886.802,1311150.184,1309900.128,1310539.461,639.3,2.733,3.250,0.150,None,0,2026-07-14T15:32:42.5516667+02:00
pam,1,2,93,T,1,slow,narrow,D3,1312691.919,,,,,,,,,1316329.783,1317051.665,721.9,1.183,3.250,0.150,None,0,2026-07-14T15:32:49.0640645+02:00
pam,1,2,94,T,1,slow,narrow,D6,1319384.580,,,,,,,,,1321023.419,1321703.689,680.3,2.733,3.250,0.150,None,0,2026-07-14T15:32:55.7571439+02:00
pam,1,2,95,T,1,fast,narrow,D5,1325758.526,,,,,,,,,1326633.255,1327424.803,791.5,2.217,3.250,0.150,None,0,2026-07-14T15:32:59.0341777+02:00
pam,1,2,96,VT,1,fast,narrow,D4,1328925.216,1328925.216,1329300.177,1329550.360,1329800.219,1330050.547,1330300.207,1330550.292,1330800.046,1330050.547,1330730.720,680.2,1.700,3.250,0.150,None,0,2026-07-14T15:33:02.2008979+02:00
pam,1,2,97,T,0,fast,narrow,D7,1332327.685,,,,,,,,,1332702.496,,,3.250,3.250,0.150,None,0,2026-07-14T15:33:06.0058022+02:00
pam,1,2,98,VT,1,fast,narrow,D4,1336312.608,1336312.608,1336687.673,1336937.648,1337187.492,1337437.340,1337674.040,1337936.967,1338187.088,1337437.340,1338034.211,596.9,1.700,3.250,0.150,None,0,2026-07-14T15:33:09.5882353+02:00
pam,1,2,99,V,0,slow,narrow,,1339575.596,1339575.596,1340547.397,1341200.601,1341867.215,1342533.919,1343200.373,1343866.936,1344547.263,,,,,3.250,0.150,None,0,2026-07-14T15:33:15.9483448+02:00
pam,1,2,100,T,1,slow,narrow,D3,1346158.041,,,,,,,,,1349797.809,1350477.106,679.3,1.183,3.250,0.150,None,0,2026-07-14T15:33:22.5305160+02:00
pam,1,2,101,T,1,slow,narrow,D5,1352920.718,,,,,,,,,1355235.165,1355930.810,695.6,2.217,3.250,0.150,None,0,2026-07-14T15:33:29.2921216+02:00
pam,1,2,102,T,1,fast,narrow,D1,1359516.741,,,,,,,,,1361391.983,1362058.520,666.5,0.150,3.250,0.150,None,0,2026-07-14T15:33:33.4463728+02:00
pam,1,2,103,T,1,fast,narrow,D3,1363697.083,,,,,,,,,1365072.172,1365710.576,638.4,1.183,3.250,0.150,None,0,2026-07-14T15:33:37.0983092+02:00
pam,1,2,104,VT,1,fast,narrow,D5,1367321.636,1367321.636,1367696.560,1367932.537,1368182.417,1368446.245,1368682.462,1368932.477,1369182.512,1368182.417,1368821.413,639.0,2.217,3.250,0.150,None,0,2026-07-14T15:33:40.5831101+02:00
pam,1,2,105,T,1,slow,narrow,D2,1370668.258,,,,,,,,,1374972.405,1375625.012,652.6,0.667,3.250,0.150,None,0,2026-07-14T15:33:47.0400564+02:00
pam,1,2,106,VT,1,fast,narrow,D2,1377388.627,1377388.627,1377763.370,1377999.830,1378249.535,1378513.180,1378763.314,1379013.142,1379262.850,1379013.142,1379610.090,596.9,0.667,3.250,0.150,None,0,2026-07-14T15:33:50.9981844+02:00
pam,1,2,107,VT,1,fast,narrow,D7,1381040.548,1381040.548,1381415.375,1381665.832,1381902.148,1382165.562,1382401.847,1382651.957,1382901.788,1381415.375,1382179.332,764.0,3.250,3.250,0.150,None,0,2026-07-14T15:33:54.3021514+02:00
pam,1,2,108,T,1,slow,narrow,D1,1384359.530,,,,,,,,,1389330.676,1389913.915,583.2,0.150,3.250,0.150,None,0,2026-07-14T15:34:01.3019475+02:00
pam,1,2,109,VT,1,fast,narrow,D6,1391302.664,1391302.664,1391677.772,1391913.716,1392177.593,1392427.621,1392677.834,1392914.218,1393177.459,1391913.716,1392691.160,777.4,2.733,3.250,0.150,None,0,2026-07-14T15:34:04.5782348+02:00
pam,1,2,110,T,1,fast,narrow,D1,1394635.573,,,,,,,,,1396510.116,1397260.138,750.0,0.150,3.250,0.150,None,0,2026-07-14T15:34:08.6481514+02:00
pam,1,2,111,V,0,fast,narrow,,1398523.424,1398523.424,1398898.594,1399148.440,1399384.821,1399648.400,1399898.431,1400148.249,1400398.398,,,,,3.250,0.150,None,0,2026-07-14T15:34:11.7991188+02:00
pam,1,2,112,VT,1,slow,narrow,D4,1401828.313,1401828.313,1402800.519,1403453.231,1404120.290,1404787.209,1405454.155,1406120.827,1406786.764,1404787.209,1405439.964,652.8,1.700,3.250,0.150,None,0,2026-07-14T15:34:18.1873698+02:00
pam,1,2,113,T,1,fast,narrow,D5,1408203.117,,,,,,,,,1409077.693,1409938.598,860.9,2.217,3.250,0.150,None,0,2026-07-14T15:34:21.4650494+02:00
pam,1,2,114,T,1,fast,narrow,D2,1411424.539,,,,,,,,,1413049.288,1413840.679,791.4,0.667,3.250,0.150,None,0,2026-07-14T15:34:25.2288117+02:00
pam,1,2,115,T,1,slow,narrow,D6,1415381.932,,,,,,,,,1417020.576,1417645.304,624.7,2.733,3.250,0.150,None,0,2026-07-14T15:34:31.7408283+02:00
pam,1,2,116,VT,1,fast,narrow,D2,1421895.425,1421895.425,1422270.174,1422520.130,1422770.159,1423019.392,1423269.645,1423519.597,1423769.523,1423519.597,1424015.130,495.5,0.667,3.250,0.150,None,0,2026-07-14T15:34:35.4033975+02:00
pam,1,2,117,VT,1,fast,narrow,D5,1425449.941,1425449.941,1425824.952,1426061.091,1426324.969,1426574.907,1426824.817,1427074.773,1427324.644,1426324.969,1427005.058,680.1,2.217,3.250,0.150,None,0,2026-07-14T15:34:38.7256104+02:00
pam,1,2,118,T,1,fast,narrow,D2,1428921.388,,,,,,,,,1430546.067,1431448.579,902.5,0.667,3.250,0.150,None,0,2026-07-14T15:34:42.8364068+02:00
pam,1,2,119,T,0,fast,narrow,D6,1432865.409,,,,,,,,,1433490.461,,,2.733,3.250,0.150,None,0,2026-07-14T15:34:46.5851034+02:00
pam,1,2,120,T,0,fast,narrow,D3,1436809.265,,,,,,,,,1438183.663,,,1.183,3.250,0.150,None,0,2026-07-14T15:34:50.9317729+02:00
pam,1,2,121,T,1,slow,narrow,D4,1441184.025,,,,,,,,,1444155.711,1444586.295,430.6,1.700,3.250,0.150,None,0,2026-07-14T15:34:57.5560952+02:00
pam,1,2,122,VT,1,slow,narrow,D2,1447738.260,1447738.260,1448709.787,1449376.450,1450043.074,1450709.459,1451375.679,1452042.346,1452709.327,1452042.346,1452472.460,430.1,0.667,3.250,0.150,None,0,2026-07-14T15:35:04.1097641+02:00
pam,1,2,123,T,1,fast,narrow,D3,1454319.456,,,,,,,,,1455694.103,1456416.046,721.9,1.183,3.250,0.150,None,0,2026-07-14T15:35:07.8037567+02:00
pam,1,2,124,VT,1,fast,narrow,D5,1457985.993,1457985.993,1458361.011,1458597.077,1458847.143,1459097.224,1459347.917,1459610.708,1459860.408,1458847.143,1459388.994,541.9,2.217,3.250,0.150,None,0,2026-07-14T15:35:11.2613328+02:00
pam,1,2,125,T,1,slow,narrow,D7,1461513.999,,,,,,,,,1462485.487,1463111.661,626.2,3.250,3.250,0.150,None,0,2026-07-14T15:35:17.8852775+02:00
pam,1,2,126,VT,1,fast,narrow,D4,1468067.935,1468067.935,1468442.959,1468692.827,1468942.774,1469192.731,1469442.881,1469692.437,1469942.551,1469192.731,1469831.560,638.8,1.700,3.250,0.150,None,0,2026-07-14T15:35:21.3430101+02:00
pam,1,2,127,T,1,fast,narrow,D6,1471470.397,,,,,,,,,1472095.406,1472914.549,819.1,2.733,3.250,0.150,None,0,2026-07-14T15:35:24.7458545+02:00
pam,1,2,128,VT,1,slow,narrow,D1,1474983.445,1474983.445,1475955.460,1476621.893,1477288.319,1477941.443,1478621.674,1479287.969,1479954.475,1479954.475,1480468.224,513.7,0.150,3.250,0.150,None,0,2026-07-14T15:35:31.8563183+02:00
pam,1,2,129,VT,1,fast,narrow,D1,1481773.155,1481773.155,1482147.975,1482384.157,1482634.239,1482897.950,1483147.806,1483384.215,1483647.769,1483647.769,1484092.009,444.2,0.150,3.250,0.150,None,0,2026-07-14T15:35:35.4798981+02:00
pam,1,2,130,VT,1,slow,narrow,D6,1485786.665,1485786.665,1486758.520,1487411.164,1488077.818,1488744.576,1489411.254,1490091.891,1490758.108,1487411.164,1488397.740,986.6,2.733,3.250,0.150,None,0,2026-07-14T15:35:42.1586721+02:00
pam,1,2,131,VT,1,slow,narrow,D7,1492187.941,1492187.941,1493160.046,1493813.346,1494493.184,1495160.232,1495826.466,1496492.911,1497159.261,1493160.046,1493826.839,666.8,3.250,3.250,0.150,None,0,2026-07-14T15:35:48.5606917+02:00
pam,1,2,132,VT,1,slow,narrow,D3,1498825.697,1498825.697,1499797.909,1500450.694,1501131.053,1501797.748,1502464.018,1503130.356,1503797.479,1502464.018,1502978.193,514.2,1.183,3.250,0.150,None,0,2026-07-14T15:35:55.1981757+02:00
pam,1,2,133,T,1,slow,narrow,D2,1505144.218,,,,,,,,,1509449.970,1510158.610,708.6,0.667,3.250,0.150,None,0,2026-07-14T15:36:01.5463339+02:00
pam,1,2,134,V,0,fast,narrow,,1511588.676,1511588.676,1511963.866,1512213.674,1512450.069,1512714.106,1512963.906,1513200.274,1513450.140,,,,,3.250,0.150,None,0,2026-07-14T15:36:04.8513791+02:00
pam,1,2,135,V,0,slow,narrow,,1514713.558,1514713.558,1515686.241,1516352.644,1517019.076,1517671.862,1518351.857,1519018.707,1519684.561,,,,,3.250,0.150,None,0,2026-07-14T15:36:11.0854090+02:00
pam,1,2,136,V,0,slow,narrow,,1521101.182,1521101.182,1522072.835,1522725.781,1523406.117,1524072.673,1524725.642,1525405.959,1526072.502,,,,,3.250,0.150,None,0,2026-07-14T15:36:17.4730790+02:00
pam,1,2,137,VT,1,slow,narrow,D7,1527794.022,1527794.022,1528766.438,1529432.379,1530099.043,1530765.456,1531431.906,1532098.832,1532765.097,1528766.438,1529418.759,652.3,3.250,3.250,0.150,None,0,2026-07-14T15:36:24.1660068+02:00
pam,1,2,138,V,0,slow,narrow,,1534361.522,1534361.522,1535334.051,1536000.468,1536667.051,1537333.374,1537999.647,1538666.076,1539332.627,,,,,3.250,0.150,None,0,2026-07-14T15:36:30.7337536+02:00
pam,1,2,139,VT,1,slow,narrow,D4,1540736.314,1540736.314,1541707.527,1542360.297,1543040.359,1543707.205,1544374.001,1545040.211,1545706.700,1543707.205,1544291.023,583.8,1.700,3.250,0.150,None,0,2026-07-14T15:36:37.1082341+02:00
pam,1,2,140,V,0,slow,narrow,,1547067.607,1547067.607,1548039.488,1548706.199,1549372.431,1550038.860,1550705.547,1551372.195,1552038.614,,,,,3.250,0.150,None,0,2026-07-14T15:36:43.4394607+02:00
pam,1,2,141,V,0,fast,narrow,,1553315.952,1553315.952,1553691.173,1553941.277,1554190.779,1554440.945,1554690.797,1554940.848,1555191.175,,,,,3.250,0.150,None,0,2026-07-14T15:36:46.5922438+02:00
pam,1,2,142,V,0,fast,narrow,,1556940.600,1556940.600,1557315.578,1557565.551,1557815.361,1558065.271,1558315.152,1558565.233,1558815.081,,,,,3.250,0.150,None,0,2026-07-14T15:36:50.2163204+02:00
pam,1,2,143,VT,1,slow,narrow,D3,1560190.134,1560190.134,1561162.022,1561828.516,1562494.940,1563161.606,1563828.318,1564495.018,1565161.336,1563828.318,1564370.027,541.7,1.183,3.250,0.150,None,0,2026-07-14T15:36:56.5622370+02:00
pam,1,2,144,VT,1,fast,narrow,D2,1566605.493,1566605.493,1566980.593,1567216.583,1567466.884,1567730.567,1567966.487,1568216.677,1568479.937,1568216.677,1568660.602,443.9,0.667,3.250,0.150,None,0,2026-07-14T15:37:00.0487734+02:00
pam,1,2,145,VT,1,slow,narrow,D1,1570049.342,1570049.342,1571021.464,1571687.712,1572354.455,1573020.941,1573687.821,1574354.155,1575020.719,1575020.719,1575451.547,430.8,0.150,3.250,0.150,None,0,2026-07-14T15:37:06.8393104+02:00
pam,1,2,146,V,0,slow,narrow,,1577243.397,1577243.397,1578215.579,1578867.955,1579534.666,1580214.627,1580881.213,1581547.952,1582214.278,,,,,3.250,0.150,None,0,2026-07-14T15:37:13.6155388+02:00
pam,1,2,147,VT,1,fast,narrow,D1,1583852.898,1583852.898,1584228.112,1584464.416,1584728.093,1584964.377,1585214.408,1585464.346,1585714.104,1585714.104,1586102.790,388.7,0.150,3.250,0.150,None,0,2026-07-14T15:37:17.4907593+02:00
pam,1,2,148,VT,1,fast,narrow,D1,1587491.455,1587491.455,1587866.264,1588102.321,1588352.348,1588602.406,1588865.915,1589116.276,1589366.155,1589366.155,1589810.697,444.5,0.150,3.250,0.150,None,0,2026-07-14T15:37:21.1988858+02:00
pam,1,2,149,VT,1,slow,narrow,D7,1591185.530,1591185.530,1592157.566,1592824.180,1593490.481,1594157.150,1594823.570,1595490.459,1596157.214,1592157.566,1592963.141,805.6,3.250,3.250,0.150,None,0,2026-07-14T15:37:27.5580539+02:00
pam,1,2,150,V,0,fast,narrow,,1597823.672,1597823.672,1598198.818,1598448.336,1598698.317,1598948.224,1599198.370,1599447.990,1599697.923,,,,,3.250,0.150,None,0,2026-07-14T15:37:31.0984901+02:00
pam,1,2,151,T,1,slow,narrow,D3,1601350.577,,,,,,,,,1604988.814,1604988.814,0.0,1.183,3.250,0.150,None,0,2026-07-14T15:37:37.7227883+02:00
pam,1,2,152,V,0,fast,narrow,,1608071.589,1608071.589,1608446.401,1608696.059,1608946.281,1609195.945,1609446.030,1609695.660,1609945.765,,,,,3.250,0.150,None,0,2026-07-14T15:37:41.3470685+02:00
pam,1,2,153,T,1,slow,narrow,D2,1611445.462,,,,,,,,,1615750.151,1616472.300,722.1,0.667,3.250,0.150,None,0,2026-07-14T15:37:47.8604996+02:00
pam,1,2,154,VT,1,slow,narrow,D3,1618041.159,1618041.159,1619013.134,1619679.612,1620345.933,1621012.637,1621679.431,1622345.736,1623012.402,1621679.431,1622220.846,541.4,1.183,3.250,0.150,None,0,2026-07-14T15:37:54.4129187+02:00
pam,1,3,1,T,1,fast,narrow,D2,1629733.973,,,,,,,,,1631358.487,1632122.383,763.9,0.667,3.250,0.150,None,0,2026-07-14T15:38:03.5109700+02:00
pam,1,3,2,T,1,slow,narrow,D1,1633400.007,,,,,,,,,1638371.720,1638941.400,569.7,0.150,3.250,0.150,None,0,2026-07-14T15:38:10.3292860+02:00
pam,1,3,3,T,0,fast,narrow,D7,1640704.633,,,,,,,,,1641079.513,,,3.250,3.250,0.150,None,0,2026-07-14T15:38:14.7998953+02:00
pam,1,3,4,VT,1,slow,narrow,D2,1644898.417,1644898.417,1645869.951,1646536.588,1647203.335,1647871.283,1648535.936,1649202.113,1649868.917,1649202.113,1649855.222,653.1,0.667,3.250,0.150,None,0,2026-07-14T15:38:21.2700219+02:00
pam,1,3,5,VT,1,slow,narrow,D3,1651632.497,1651632.497,1652604.490,1653257.383,1653937.555,1654595.666,1655265.974,1655933.647,1656601.716,1655265.974,1655836.259,570.3,1.183,3.250,0.150,None,0,2026-07-14T15:38:28.0031841+02:00
pam,1,3,6,T,0,fast,narrow,D6,1657949.516,,,,,,,,,1658574.924,,,2.733,3.250,0.150,None,0,2026-07-14T15:38:31.8933642+02:00
pam,1,3,7,V,0,slow,narrow,,1661728.148,1661728.148,1662700.155,1663353.277,1664020.131,1664686.486,1665366.635,1666033.705,1666699.846,,,,,3.250,0.150,None,0,2026-07-14T15:38:38.1005921+02:00
pam,1,3,8,VT,1,fast,narrow,D6,1668004.614,1668004.614,1668379.444,1668629.540,1668879.368,1669129.209,1669379.190,1669629.359,1669879.034,1668629.540,1669240.396,610.9,2.733,3.250,0.150,None,0,2026-07-14T15:38:41.2805888+02:00
pam,1,3,9,T,0,fast,narrow,D1,1671129.143,,,,,,,,,1673003.884,,,0.150,3.250,0.150,None,0,2026-07-14T15:38:46.0158816+02:00
pam,1,3,10,V,0,fast,narrow,,1676058.933,1676058.933,1676434.120,1676670.656,1676933.898,1677183.762,1677433.753,1677683.344,1677933.629,,,,,3.250,0.150,None,0,2026-07-14T15:38:49.3347151+02:00
pam,1,3,11,VT,1,slow,narrow,D4,1679460.840,1679460.840,1680433.334,1681099.448,1681766.160,1682432.609,1683099.171,1683765.627,1684432.167,1682432.609,1683071.424,638.8,1.700,3.250,0.150,None,0,2026-07-14T15:38:55.8333717+02:00
pam,1,3,12,T,1,slow,narrow,D4,1686237.377,,,,,,,,,1689210.011,1689876.531,666.5,1.700,3.250,0.150,None,0,2026-07-14T15:39:02.6103312+02:00
pam,1,3,13,VT,1,slow,narrow,D5,1692569.780,1692569.780,1693541.760,1694194.694,1694874.886,1695541.352,1696208.576,1696861.499,1697542.091,1694874.886,1695625.078,750.2,2.217,3.250,0.150,None,0,2026-07-14T15:39:08.9421856+02:00
pam,1,3,14,VT,1,fast,narrow,D4,1699235.557,1699235.557,1699610.967,1699860.585,1700110.903,1700360.648,1700610.503,1700860.694,1701110.480,1700360.648,1700902.501,541.9,1.700,3.250,0.150,None,0,2026-07-14T15:39:12.5114305+02:00
pam,1,3,15,V,0,fast,narrow,,1702721.606,1702721.606,1703096.336,1703346.165,1703596.322,1703845.975,1704095.913,1704345.989,1704595.882,,,,,3.250,0.150,None,0,2026-07-14T15:39:15.9969497+02:00
pam,1,3,16,VT,1,fast,narrow,D4,1706359.577,1706359.577,1706734.263,1706984.452,1707220.896,1707484.360,1707720.698,1708133.748,1708234.044,1707484.360,1708133.748,649.4,1.700,3.250,0.150,None,0,2026-07-14T15:39:19.6353949+02:00
pam,1,3,17,V,0,slow,narrow,,1709804.020,1709804.020,1710775.308,1711427.696,1712108.133,1712760.928,1713441.337,1714094.264,1714761.104,,,,,3.250,0.150,None,0,2026-07-14T15:39:26.1621129+02:00
pam,1,3,18,V,0,fast,narrow,,1716205.830,1716205.830,1716579.950,1716830.137,1717080.028,1717316.380,1717566.467,1717830.004,1718066.336,,,,,3.250,0.150,None,0,2026-07-14T15:39:29.4675442+02:00
pam,1,3,19,VT,1,fast,narrow,D2,1719468.790,1719468.790,1719843.354,1720093.297,1720343.360,1720593.193,1720843.219,1721093.115,1721343.086,1721093.115,1721620.571,527.5,0.667,3.250,0.150,None,0,2026-07-14T15:39:33.0085344+02:00
pam,1,3,20,T,1,slow,narrow,D3,1723037.117,,,,,,,,,1726675.046,1727369.229,694.2,1.183,3.250,0.150,None,0,2026-07-14T15:39:39.4091584+02:00
pam,1,3,21,V,0,slow,narrow,,1729355.111,1729355.111,1730327.090,1730993.585,1731660.202,1732326.873,1732993.282,1733660.242,1734326.729,,,,,3.250,0.150,None,0,2026-07-14T15:39:45.7283676+02:00
pam,1,3,22,T,1,slow,narrow,D4,1735881.730,,,,,,,,,1738853.447,1737298.043,-1555.4,1.700,3.250,0.150,None,0,2026-07-14T15:39:52.2557391+02:00
pam,1,3,23,VT,1,slow,narrow,D3,1742380.479,1742380.479,1743352.729,1744005.483,1744685.679,1745352.377,1746019.071,1746685.515,1747352.304,1746019.071,1746616.233,597.2,1.183,3.250,0.150,None,0,2026-07-14T15:39:58.7533857+02:00
pam,1,3,24,VT,1,fast,narrow,D5,1748852.156,1748852.156,1749227.184,1749477.027,1749727.225,1749977.096,1750227.042,1750476.953,1750727.141,1749727.225,1750379.810,652.6,2.217,3.250,0.150,None,0,2026-07-14T15:40:02.1279042+02:00
pam,1,3,25,VT,1,fast,narrow,D3,1752059.677,1752059.677,1752435.001,1752684.719,1752935.163,1753184.446,1753421.202,1753684.583,1753934.867,1753421.202,1753934.867,513.7,1.183,3.250,0.150,None,0,2026-07-14T15:40:05.3356616+02:00
pam,1,3,26,VT,1,fast,narrow,D2,1755267.501,1755267.501,1755642.456,1755892.409,1756142.673,1756392.316,1756642.491,1756892.370,1757142.250,1756892.370,1757386.095,493.7,0.667,3.250,0.150,None,0,2026-07-14T15:40:08.7742816+02:00
pam,1,3,27,VT,0,slow,narrow,D7,1759155.932,1759155.932,1760127.732,1760780.584,1761447.007,1762127.033,1762793.878,1763460.439,1764126.745,1760127.732,,,3.250,3.250,0.150,None,0,2026-07-14T15:40:16.1666885+02:00
pam,1,3,28,VT,1,fast,narrow,D5,1766070.546,1766070.546,1766445.696,1766681.935,1766931.669,1767195.769,1767432.125,1767681.926,1767931.919,1766931.669,1767501.004,569.3,2.217,3.250,0.150,None,0,2026-07-14T15:40:19.3330995+02:00
pam,1,3,29,V,0,slow,narrow,,1769570.612,1769570.612,1770542.678,1771209.290,1771875.427,1772542.010,1773208.726,1773874.958,1774541.538,,,,,3.250,0.150,None,0,2026-07-14T15:40:25.9427227+02:00
pam,1,3,30,VT,1,fast,narrow,D2,1776124.610,1776124.610,1776499.579,1776749.681,1776999.500,1777249.517,1777499.544,1777749.550,1777999.450,1777749.550,1778124.326,374.8,0.667,3.250,0.150,None,0,2026-07-14T15:40:29.5121599+02:00
pam,1,3,31,T,1,fast,narrow,D4,1779443.461,,,,,,,,,1780568.581,1781318.585,750.0,1.700,3.250,0.150,None,0,2026-07-14T15:40:32.7062456+02:00
pam,1,3,32,VT,1,slow,narrow,D7,1782943.064,1782943.064,1783914.931,1784581.350,1785248.151,1785914.651,1786581.062,1787247.673,1787914.497,1783914.931,1784873.184,958.3,3.250,3.250,0.150,None,0,2026-07-14T15:40:39.3153769+02:00
pam,1,3,33,T,1,fast,narrow,D3,1789678.181,,,,,,,,,1791052.711,1791830.438,777.7,1.183,3.250,0.150,None,0,2026-07-14T15:40:43.2185798+02:00
pam,1,3,34,V,0,fast,narrow,,1793135.525,1793135.525,1793510.164,1793760.129,1793996.458,1794260.166,1794496.613,1794760.616,1795010.455,,,,,3.250,0.150,None,0,2026-07-14T15:40:46.4109896+02:00
pam,1,3,35,V,0,fast,narrow,,1796676.751,1796676.751,1797051.642,1797287.861,1797551.798,1797801.794,1798037.948,1798287.895,1798538.159,,,,,3.250,0.150,None,0,2026-07-14T15:40:49.9389225+02:00
pam,1,3,36,VT,1,slow,narrow,D6,1799926.645,1799926.645,1800898.729,1801565.095,1802231.466,1802897.866,1803564.085,1804230.541,1804897.297,1801565.095,1802161.925,596.8,2.733,3.250,0.150,None,0,2026-07-14T15:40:56.2988581+02:00
pam,1,3,37,T,1,slow,narrow,D1,1806564.062,,,,,,,,,1811535.215,1811993.566,458.4,0.150,3.250,0.150,None,0,2026-07-14T15:41:03.3814040+02:00
pam,1,3,38,VT,1,fast,narrow,D1,1813604.172,1813604.172,1813979.178,1814215.713,1814479.104,1814729.111,1814965.388,1815228.980,1815478.641,1815478.641,1816048.183,569.5,0.150,3.250,0.150,None,0,2026-07-14T15:41:07.4360763+02:00
pam,1,3,39,V,0,fast,narrow,,1817645.135,1817645.135,1818020.292,1818269.969,1818519.863,1818769.963,1819019.879,1819269.786,1819519.865,,,,,3.250,0.150,None,0,2026-07-14T15:41:10.9208493+02:00
pam,1,3,40,T,1,slow,narrow,D1,1821269.755,,,,,,,,,1826241.098,1827018.887,777.8,0.150,3.250,0.150,None,0,2026-07-14T15:41:18.4066192+02:00
pam,1,3,41,VT,1,fast,narrow,D6,1828366.234,1828366.234,1828740.892,1828990.826,1829240.744,1829490.638,1829740.501,1829990.400,1830228.493,1828990.826,1829893.151,902.3,2.733,3.250,0.150,None,0,2026-07-14T15:41:21.6268709+02:00
pam,1,3,42,VT,1,fast,narrow,D3,1831642.457,1831642.457,1832017.424,1832253.752,1832517.430,1832767.371,1833017.501,1833267.404,1833517.291,1833017.501,1833587.033,569.5,1.183,3.250,0.150,None,0,2026-07-14T15:41:24.9749755+02:00
pam,1,3,43,VT,1,fast,narrow,D2,1835336.659,1835336.659,1835711.903,1835947.984,1836198.052,1836448.056,1836712.074,1836948.094,1837211.963,1836948.094,1837489.593,541.5,0.667,3.250,0.150,None,0,2026-07-14T15:41:28.8777756+02:00
pam,1,3,44,T,1,fast,narrow,D2,1838850.282,,,,,,,,,1840475.231,1841363.914,888.7,0.667,3.250,0.150,None,0,2026-07-14T15:41:32.7515847+02:00
pam,1,3,45,T,1,slow,narrow,D6,1842766.506,,,,,,,,,1844404.515,1845112.695,708.2,2.733,3.250,0.150,None,0,2026-07-14T15:41:39.1380388+02:00
pam,1,3,46,T,1,slow,narrow,D3,1849306.440,,,,,,,,,1852944.961,1853583.794,638.8,1.183,3.250,0.150,None,0,2026-07-14T15:41:45.6792408+02:00
pam,1,3,47,V,0,fast,narrow,,1855569.606,1855569.606,1855944.587,1856194.584,1856444.602,1856694.859,1856944.524,1857194.399,1857444.452,,,,,3.250,0.150,None,0,2026-07-14T15:41:48.8452922+02:00
pam,1,3,48,T,1,slow,narrow,D5,1858958.305,,,,,,,,,1861263.212,1862096.449,833.2,2.217,3.250,0.150,None,0,2026-07-14T15:41:55.3297324+02:00
pam,1,3,49,VT,1,slow,narrow,D3,1865373.181,1865373.181,1866345.163,1867011.850,1867678.212,1868345.077,1869011.308,1869678.093,1870344.302,1869011.308,1869858.311,847.0,1.183,3.250,0.150,None,0,2026-07-14T15:42:01.7456613+02:00
pam,1,3,50,VT,1,slow,narrow,D1,1872052.649,1872052.649,1873025.299,1873678.135,1874344.786,1875011.671,1875691.829,1876358.264,1877024.734,1877024.734,1877566.209,541.5,0.150,3.250,0.150,None,0,2026-07-14T15:42:08.9540985+02:00
pam,1,3,51,VT,0,slow,narrow,D4,1878885.522,1878885.522,1879857.383,1880510.139,1881190.118,1881856.885,1882523.940,1883176.680,1883857.159,1881856.885,,,1.700,3.250,0.150,None,0,2026-07-14T15:42:15.8831689+02:00
pam,1,3,52,V,0,fast,narrow,,1886287.052,1886287.052,1886661.783,1886911.735,1887161.827,1887412.107,1887661.842,1887911.679,1888161.952,,,,,3.250,0.150,None,0,2026-07-14T15:42:19.5628234+02:00
pam,1,3,53,T,0,fast,narrow,D2,1889730.644,,,,,,,,,1891355.815,,,0.667,3.250,0.150,None,0,2026-07-14T15:42:24.4504872+02:00
pam,1,3,54,T,0,slow,narrow,D4,1894799.263,,,,,,,,,1897771.136,,,1.700,3.250,0.150,None,0,2026-07-14T15:42:33.2960422+02:00
pam,1,3,55,T,1,fast,narrow,D1,1903255.650,,,,,,,,,1905130.380,1905977.734,847.4,0.150,3.250,0.150,None,0,2026-07-14T15:42:37.3657954+02:00
pam,1,3,56,VT,1,fast,narrow,D6,1907283.757,1907283.757,1907658.523,1907894.707,1908158.352,1908408.420,1908658.111,1908908.401,1909158.082,1907894.707,1908783.148,888.4,2.733,3.250,0.150,None,0,2026-07-14T15:42:40.5594301+02:00
pam,1,3,57,VT,0,fast,narrow,D7,1910755.354,1910755.354,1911130.313,1911380.221,1911630.255,1911880.027,1912116.735,1912380.014,1912630.007,1911130.313,,,3.250,3.250,0.150,None,0,2026-07-14T15:42:44.6835232+02:00
pam,1,3,58,T,1,slow,narrow,D4,1914782.536,,,,,,,,,1917752.619,1918503.195,750.6,1.700,3.250,0.150,None,0,2026-07-14T15:42:51.1411377+02:00
pam,1,3,59,VT,1,slow,narrow,D3,1921114.969,1921114.969,1922087.428,1922753.698,1923420.116,1924086.394,1924753.116,1925419.760,1926086.244,1924753.116,1925280.826,527.7,1.183,3.250,0.150,None,0,2026-07-14T15:42:57.4871680+02:00
pam,1,3,60,V,0,slow,narrow,,1927739.399,1927739.399,1928711.149,1929364.059,1930044.137,1930710.611,1931377.030,1932043.622,1932709.944,,,,,3.250,0.150,None,0,2026-07-14T15:43:04.1107080+02:00
pam,1,3,61,VT,1,fast,narrow,D5,1934084.769,1934084.769,1934459.618,1934709.307,1934959.357,1935209.347,1935459.175,1935709.298,1935959.121,1934959.357,1935486.917,527.6,2.217,3.250,0.150,None,0,2026-07-14T15:43:07.3597953+02:00
pam,1,3,62,T,1,fast,narrow,D1,1937708.605,,,,,,,,,1939583.568,1940430.963,847.4,0.150,3.250,0.150,None,0,2026-07-14T15:43:11.8188616+02:00
pam,1,3,63,VT,1,slow,narrow,D2,1941916.708,1941916.708,1942888.826,1943555.093,1944221.755,1944888.563,1945554.516,1946220.885,1946887.813,1946220.885,1946734.945,514.1,0.667,3.250,0.150,None,0,2026-07-14T15:43:18.2895158+02:00
pam,1,3,64,T,1,slow,narrow,D6,1948373.074,,,,,,,,,1950011.453,1950761.579,750.1,2.733,3.250,0.150,None,0,2026-07-14T15:43:24.7447434+02:00
pam,1,3,65,VT,1,fast,narrow,D5,1954801.909,1954801.909,1955176.857,1955413.087,1955676.866,1955926.836,1956176.898,1956426.500,1956676.623,1955676.866,1956287.748,610.9,2.217,3.250,0.150,None,0,2026-07-14T15:43:28.0782351+02:00
pam,1,3,66,VT,1,slow,narrow,D7,1958384.993,1958384.993,1959357.580,1960024.130,1960690.988,1961357.518,1962023.873,1962689.943,1963356.748,1959357.580,1960329.651,972.1,3.250,3.250,0.150,None,0,2026-07-14T15:43:34.7576279+02:00
pam,1,3,67,T,1,slow,narrow,D2,1964619.953,,,,,,,,,1968924.651,1969382.963,458.3,0.667,3.250,0.150,None,0,2026-07-14T15:43:40.9790812+02:00
pam,1,3,68,VT,1,fast,narrow,D4,1970826.897,1970826.897,1971202.613,1971438.382,1971702.302,1971951.978,1972202.334,1972452.204,1972701.878,1971951.978,1972701.878,749.9,1.700,3.250,0.150,None,0,2026-07-14T15:43:44.1028396+02:00
pam,1,3,69,V,0,slow,narrow,,1973951.543,1973951.543,1974923.711,1975576.484,1976243.120,1976909.894,1977590.106,1978256.647,1978923.232,,,,,3.250,0.150,None,0,2026-07-14T15:43:50.3240389+02:00
pam,1,3,70,T,1,slow,narrow,D5,1980367.229,,,,,,,,,1982672.844,1983339.573,666.7,2.217,3.250,0.150,None,0,2026-07-14T15:43:56.7399862+02:00
pam,1,3,71,V,0,fast,narrow,,1986658.164,1986658.164,1987033.023,1987283.041,1987533.256,1987782.809,1988019.557,1988282.539,1988532.944,,,,,3.250,0.150,None,0,2026-07-14T15:43:59.9334952+02:00
pam,1,3,72,T,1,fast,narrow,D5,1990296.181,,,,,,,,,1991171.005,1991739.968,569.0,2.217,3.250,0.150,None,0,2026-07-14T15:44:03.5713153+02:00
pam,1,3,73,VT,0,fast,narrow,D7,1993822.407,1993822.407,1994197.615,1994447.637,1994697.413,1994947.675,1995197.686,1995447.598,1995697.286,1994197.615,,,3.250,3.250,0.150,None,0,2026-07-14T15:44:07.7233677+02:00
pam,1,3,74,V,0,fast,narrow,,1997780.620,1997780.620,1998155.510,1998405.451,1998656.066,1998905.459,1999155.745,1999405.349,1999655.302,,,,,3.250,0.150,None,0,2026-07-14T15:44:11.0566935+02:00
pam,1,3,75,VT,1,slow,narrow,D1,2000946.715,2000946.715,2001919.398,2002571.854,2003251.452,2003918.184,2004585.274,2005251.983,2005919.068,2005919.068,2006377.086,458.0,0.150,3.250,0.150,None,0,2026-07-14T15:44:17.7650904+02:00
pam,1,3,76,T,1,fast,narrow,D6,2008126.848,,,,,,,,,2008751.548,2009542.848,791.3,2.733,3.250,0.150,None,0,2026-07-14T15:44:21.4020831+02:00
pam,1,3,77,T,1,fast,narrow,D4,2011612.285,,,,,,,,,2012736.912,2013472.338,735.4,1.700,3.250,0.150,None,0,2026-07-14T15:44:24.8872857+02:00
pam,1,3,78,T,1,fast,narrow,D5,2014861.316,,,,,,,,,2015736.257,2016499.614,763.4,2.217,3.250,0.150,None,0,2026-07-14T15:44:28.1365029+02:00
pam,1,3,79,VT,1,fast,narrow,D1,2018054.827,2018054.827,2018429.703,2018665.966,2018916.092,2019166.197,2019429.565,2019679.557,2019929.944,2019929.944,2020373.845,443.9,0.150,3.250,0.150,None,0,2026-07-14T15:44:31.7615882+02:00
pam,1,3,80,VT,1,slow,narrow,D5,2021943.309,2021943.309,2022915.219,2023582.085,2024248.437,2024914.800,2025581.569,2026248.250,2026914.718,2024248.437,2024831.523,583.1,2.217,3.250,0.150,None,0,2026-07-14T15:44:38.3155967+02:00
pam,1,3,81,T,1,fast,narrow,D2,2028164.583,,,,,,,,,2029789.326,2030511.289,722.0,0.667,3.250,0.150,None,0,2026-07-14T15:44:41.8994176+02:00
pam,1,3,82,VT,1,slow,narrow,D6,2031997.227,2031997.227,2032969.041,2033621.728,2034302.302,2034968.804,2035635.623,2036301.991,2036968.114,2033621.728,2034468.918,847.2,2.733,3.250,0.150,None,0,2026-07-14T15:44:48.3689129+02:00
pam,1,3,83,V,0,slow,narrow,,2038648.647,2038648.647,2039620.750,2040287.326,2040953.564,2041620.213,2042286.720,2042953.463,2043619.766,,,,,3.250,0.150,None,0,2026-07-14T15:44:55.0206506+02:00
pam,1,3,84,VT,1,fast,narrow,D7,2045369.647,2045369.647,2045744.936,2045994.681,2046231.053,2046481.034,2046731.042,2046981.230,2047231.312,2045744.936,2046411.467,666.5,3.250,3.250,0.150,None,0,2026-07-14T15:44:58.6322768+02:00
pam,1,3,85,V,0,slow,narrow,,2048717.225,2048717.225,2049689.217,2050355.062,2051021.691,2051688.288,2052355.035,2053021.494,2053687.939,,,,,3.250,0.150,None,0,2026-07-14T15:45:05.0890221+02:00
pam,1,3,86,T,1,fast,narrow,D7,2055034.907,,,,,,,,,2055409.869,2056104.262,694.4,3.250,3.250,0.150,None,0,2026-07-14T15:45:08.3104522+02:00
pam,1,3,87,V,0,slow,narrow,,2058200.991,2058200.991,2059173.069,2059826.329,2060506.159,2061172.128,2061838.856,2062505.566,2063172.456,,,,,3.250,0.150,None,0,2026-07-14T15:45:14.5731801+02:00
pam,1,3,88,V,0,slow,narrow,,2064408.218,2064408.218,2065380.267,2066046.572,2066712.864,2067379.552,2068046.338,2068712.569,2069379.268,,,,,3.250,0.150,None,0,2026-07-14T15:45:20.7799174+02:00
pam,1,3,89,T,1,fast,narrow,D6,2071156.853,,,,,,,,,2071781.463,2072434.645,653.2,2.733,3.250,0.150,None,0,2026-07-14T15:45:24.4184060+02:00
pam,1,3,90,VT,1,slow,narrow,D5,2074586.699,2074586.699,2075573.255,2076239.130,2076905.712,2077572.653,2078239.343,2078905.680,2079572.236,2076905.712,2077697.422,791.7,2.217,3.250,0.150,None,0,2026-07-14T15:45:30.9730046+02:00
pam,1,3,91,T,1,slow,narrow,D5,2081183.240,,,,,,,,,2083488.183,2084238.103,749.9,2.217,3.250,0.150,None,0,2026-07-14T15:45:37.5557510+02:00
pam,1,3,92,V,0,slow,narrow,,2087543.097,2087543.097,2088515.040,2089181.435,2089848.347,2090514.536,2091181.188,2091847.758,2092514.189,,,,,3.250,0.150,None,0,2026-07-14T15:45:43.9147023+02:00
pam,1,3,93,VT,1,slow,narrow,D1,2093986.546,2093986.546,2094958.673,2095624.933,2096291.570,2096958.093,2097624.499,2098290.972,2098957.698,2098957.698,2099346.558,388.9,0.150,3.250,0.150,None,0,2026-07-14T15:45:50.7347365+02:00
pam,1,3,94,VT,1,fast,narrow,D3,2101109.944,2101109.944,2101484.644,2101735.018,2101984.934,2102234.891,2102484.518,2102734.617,2102984.685,2102484.518,2103151.426,666.9,1.183,3.250,0.150,None,0,2026-07-14T15:45:54.5391228+02:00
pam,1,3,95,VT,1,slow,narrow,D6,2104734.854,2104734.854,2105706.639,2106373.330,2107039.907,2107706.323,2108372.931,2109039.197,2109705.909,2106373.330,2107150.785,777.5,2.733,3.250,0.150,None,0,2026-07-14T15:46:01.1069568+02:00
pam,1,3,96,VT,1,slow,narrow,D2,2111135.784,2111135.784,2112108.114,2112774.535,2113441.143,2114107.915,2114760.714,2115427.747,2116094.367,2115427.747,2115913.785,486.0,0.667,3.250,0.150,None,0,2026-07-14T15:46:07.4953993+02:00
pam,1,3,97,T,1,fast,narrow,D5,2117829.729,,,,,,,,,2118704.602,2119509.981,805.4,2.217,3.250,0.150,None,0,2026-07-14T15:46:11.1048506+02:00
pam,1,3,98,T,0,fast,narrow,D6,2121204.159,,,,,,,,,2121828.886,,,2.733,3.250,0.150,None,0,2026-07-14T15:46:15.0208737+02:00
pam,1,3,99,T,1,slow,narrow,D3,2124883.976,,,,,,,,,2128522.038,2129188.416,666.4,1.183,3.250,0.150,None,0,2026-07-14T15:46:21.2554663+02:00
pam,1,3,100,VT,1,slow,narrow,D5,2131382.445,2131382.445,2132354.492,2133007.377,2133687.596,2134354.152,2135007.255,2135687.511,2136354.132,2133687.596,2134617.878,930.3,2.217,3.250,0.150,None,0,2026-07-14T15:46:27.7552617+02:00
pam,1,3,101,VT,1,fast,narrow,D7,2137881.814,2137881.814,2138256.222,2138492.668,2138756.227,2139006.087,2139256.141,2139505.984,2139756.023,2138256.222,2138950.803,694.6,3.250,3.250,0.150,None,0,2026-07-14T15:46:31.1569523+02:00
pam,1,3,102,VT,1,fast,narrow,D1,2141019.499,2141019.499,2141394.438,2141644.506,2141880.819,2142144.448,2142394.730,2142630.959,2142894.873,2142894.873,2143338.853,444.0,0.150,3.250,0.150,None,0,2026-07-14T15:46:34.7268924+02:00
pam,1,3,103,VT,1,fast,narrow,D3,2144811.326,2144811.326,2145185.685,2145435.712,2145685.875,2145922.263,2146171.894,2146435.379,2146685.101,2146171.894,2146698.701,526.8,1.183,3.250,0.150,None,0,2026-07-14T15:46:38.0865138+02:00
pam,1,3,104,VT,1,fast,narrow,D4,2147907.524,2147907.524,2148282.114,2148532.206,2148782.124,2149018.507,2149268.416,2149518.437,2149781.537,2149018.507,2149656.882,638.4,1.700,3.250,0.150,None,0,2026-07-14T15:46:41.1826173+02:00
pam,1,3,105,T,1,fast,narrow,D7,2151392.893,,,,,,,,,2151767.780,2152531.636,763.9,3.250,3.250,0.150,None,0,2026-07-14T15:46:44.6682407+02:00
pam,1,3,106,T,1,fast,narrow,D4,2154642.393,,,,,,,,,2155767.100,2156628.142,861.0,1.700,3.250,0.150,None,0,2026-07-14T15:46:48.0159475+02:00
pam,1,3,107,T,1,fast,narrow,D3,2157989.200,,,,,,,,,2159363.980,2160044.225,680.2,1.183,3.250,0.150,None,0,2026-07-14T15:46:51.4321600+02:00
pam,1,3,108,VT,1,slow,narrow,D4,2161349.424,2161349.424,2162322.025,2162988.087,2163641.238,2164321.262,2164988.169,2165654.265,2166321.279,2164321.262,2165085.235,764.0,1.700,3.250,0.150,None,0,2026-07-14T15:46:57.7219211+02:00
pam,1,3,109,VT,0,slow,narrow,D7,2168001.433,2168001.433,2168973.207,2169639.630,2170306.260,2170972.913,2171639.201,2172305.702,2172972.452,2168973.207,,,3.250,3.250,0.150,None,0,2026-07-14T15:47:10.5530169+02:00
pam,1,3,110,V,0,slow,narrow,,2180568.760,2180568.760,2181540.524,2182207.002,2182873.595,2183540.172,2184206.589,2184873.532,2185540.115,,,,,3.250,0.150,None,0,2026-07-14T15:47:16.9416426+02:00
pam,1,3,111,V,0,fast,narrow,,2187067.241,2187067.241,2187442.469,2187692.321,2187928.580,2188192.169,2188442.169,2188692.137,2188941.808,,,,,3.250,0.150,None,0,2026-07-14T15:47:20.3426832+02:00
pam,1,3,112,V,0,slow,narrow,,2190372.312,2190372.312,2191345.092,2191997.801,2192664.211,2193344.469,2194011.010,2194677.781,2195331.126,,,,,3.250,0.150,None,0,2026-07-14T15:47:26.7319222+02:00
pam,1,3,113,T,1,fast,narrow,D3,2196733.369,,,,,,,,,2198205.488,2198649.393,443.9,1.183,3.250,0.150,None,0,2026-07-14T15:47:30.1059611+02:00
pam,1,3,114,VT,0,fast,narrow,D7,2200315.401,2200315.401,2200690.250,2200940.234,2201190.315,2201440.493,2201689.943,2201939.951,2202189.835,2200690.250,,,3.250,3.250,0.150,None,0,2026-07-14T15:47:34.1043402+02:00
pam,1,3,115,VT,1,fast,narrow,D6,2204328.759,2204328.759,2204702.997,2204939.198,2205189.129,2205439.306,2205689.075,2205939.167,2206189.579,2204939.198,2205619.500,680.3,2.733,3.250,0.150,None,0,2026-07-14T15:47:37.5903406+02:00
pam,1,3,116,T,1,slow,narrow,D2,2207883.322,,,,,,,,,2212188.241,2212701.767,513.5,0.667,3.250,0.150,None,0,2026-07-14T15:47:44.2552579+02:00
pam,1,3,117,VT,1,slow,narrow,D4,2214145.539,2214145.539,2215117.807,2215784.521,2216451.773,2217104.017,2217771.185,2218437.228,2219103.635,2217104.017,2217728.972,625.0,1.700,3.250,0.150,None,0,2026-07-14T15:47:50.5181754+02:00
pam,1,3,118,VT,1,slow,narrow,D1,2220686.910,2220686.910,2221658.653,2222311.544,2222991.841,2223658.083,2224325.234,2224991.102,2225657.720,2225657.720,2226101.851,444.1,0.150,3.250,0.150,None,0,2026-07-14T15:47:57.4896199+02:00
pam,1,3,119,T,1,slow,narrow,D6,2227310.490,,,,,,,,,2228949.377,2229657.789,708.4,2.733,3.250,0.150,None,0,2026-07-14T15:48:03.6831878+02:00
pam,1,3,120,VT,1,slow,narrow,D2,2234086.909,2234086.909,2235059.188,2235725.507,2236392.183,2237059.249,2237725.330,2238391.433,2239057.992,2238391.433,2238960.442,569.0,0.667,3.250,0.150,None,0,2026-07-14T15:48:10.4588475+02:00
pam,1,3,121,VT,1,fast,narrow,D3,2240696.856,2240696.856,2241071.974,2241308.038,2241558.184,2241821.937,2242058.232,2242321.795,2242571.670,2242058.232,2242682.906,624.7,1.183,3.250,0.150,None,0,2026-07-14T15:48:14.0708268+02:00
pam,1,3,122,VT,1,slow,narrow,D4,2243918.656,2243918.656,2244890.665,2245557.296,2246223.809,2246890.261,2247556.754,2248223.279,2248890.012,2246890.261,2247667.742,777.5,1.700,3.250,0.150,None,0,2026-07-14T15:48:20.2910264+02:00
pam,1,3,123,T,1,slow,narrow,D2,2250195.076,,,,,,,,,2254500.381,2255138.605,638.2,0.667,3.250,0.150,None,0,2026-07-14T15:48:26.5672176+02:00
pam,1,3,124,V,0,fast,narrow,,2256652.311,2256652.311,2257027.369,2257263.777,2257513.334,2257763.446,2258013.325,2258277.353,2258513.304,,,,,3.250,0.150,None,0,2026-07-14T15:48:29.9147523+02:00
pam,1,3,125,T,0,slow,narrow,D2,2260165.801,,,,,,,,,2264470.172,,,0.667,3.250,0.150,None,0,2026-07-14T15:48:37.3578720+02:00
pam,1,3,126,T,1,fast,narrow,D1,2267706.035,,,,,,,,,2269580.635,2270538.903,958.3,0.150,3.250,0.150,None,0,2026-07-14T15:48:41.9267089+02:00
pam,1,3,127,VT,1,slow,narrow,D6,2272052.516,2272052.516,2273024.809,2273677.993,2274357.876,2275024.287,2275691.110,2276357.444,2277024.128,2273677.993,2274413.410,735.4,2.733,3.250,0.150,None,0,2026-07-14T15:48:48.4248044+02:00
pam,1,3,128,VT,1,slow,narrow,D3,2278731.351,2278731.351,2279703.920,2280356.746,2281023.398,2281690.140,2282370.495,2283037.174,2283703.439,2282370.495,2282981.399,610.9,1.183,3.250,0.150,None,0,2026-07-14T15:48:55.1041602+02:00
pam,1,3,129,V,0,fast,narrow,,2285397.357,2285397.357,2285772.467,2286022.325,2286272.242,2286508.488,2286761.989,2287022.449,2287272.031,,,,,3.250,0.150,None,0,2026-07-14T15:48:58.6732193+02:00
pam,1,3,130,T,1,slow,narrow,D7,2288952.501,,,,,,,,,2289924.637,2290521.655,597.0,3.250,3.250,0.150,None,0,2026-07-14T15:49:05.3249097+02:00
pam,1,3,131,VT,1,slow,narrow,D2,2295174.039,2295174.039,2296146.479,2296799.470,2297465.867,2298132.590,2298799.209,2299479.747,2300146.241,2299479.747,2300076.682,596.9,0.667,3.250,0.150,None,0,2026-07-14T15:49:11.5470206+02:00
pam,1,3,132,T,1,slow,narrow,D3,2301479.257,,,,,,,,,2305117.327,2305658.604,541.3,1.183,3.250,0.150,None,0,2026-07-14T15:49:17.8513849+02:00
pam,1,3,133,VT,1,slow,narrow,D1,2307783.252,2307783.252,2308755.178,2309408.279,2310088.050,2310754.726,2311421.172,2312087.689,2312754.019,2312754.019,2313142.419,388.4,0.150,3.250,0.150,None,0,2026-07-14T15:49:24.5304673+02:00
pam,1,3,134,VT,1,fast,narrow,D2,2314739.621,2314739.621,2315114.388,2315364.628,2315600.564,2315864.071,2316100.570,2316350.513,2316600.515,2316350.513,2317030.936,680.4,0.667,3.250,0.150,None,0,2026-07-14T15:49:28.4185687+02:00
pam,1,3,135,T,1,fast,narrow,D4,2318294.577,,,,,,,,,2319419.225,2320363.719,944.5,1.700,3.250,0.150,None,0,2026-07-14T15:49:31.7517941+02:00
pam,1,3,136,VT,1,fast,narrow,D4,2322168.775,2322168.775,2322543.895,2322793.676,2323043.711,2323293.598,2323543.614,2323793.684,2324043.766,2323293.598,2323946.340,652.7,1.700,3.250,0.150,None,0,2026-07-14T15:49:35.4443279+02:00
pam,1,3,137,T,1,slow,narrow,D5,2325293.314,,,,,,,,,2327598.367,2328473.373,875.0,2.217,3.250,0.150,None,0,2026-07-14T15:49:41.6653795+02:00
pam,1,3,138,T,0,fast,narrow,D5,2331944.811,,,,,,,,,2332820.214,,,2.217,3.250,0.150,None,0,2026-07-14T15:49:45.9015600+02:00
pam,1,3,139,VT,1,slow,narrow,D5,2335861.111,2335861.111,2336833.158,2337499.764,2338166.213,2338832.989,2339486.104,2340165.955,2340832.201,2338166.213,2339096.452,930.2,2.217,3.250,0.150,None,0,2026-07-14T15:49:52.2333313+02:00
pam,1,3,140,VT,1,fast,narrow,D6,2342151.338,2342151.338,2342526.408,2342776.587,2343012.571,2343276.178,2343512.493,2343776.346,2344026.157,2342776.587,2343526.153,749.6,2.733,3.250,0.150,None,0,2026-07-14T15:49:55.4272279+02:00
pam,1,3,141,VT,1,fast,narrow,D5,2345817.923,2345817.923,2346192.891,2346442.430,2346692.588,2346942.579,2347192.550,2347442.705,2347692.444,2346692.588,2347400.692,708.1,2.217,3.250,0.150,None,0,2026-07-14T15:49:59.0935985+02:00
pam,1,3,142,VT,0,slow,narrow,D7,2349483.685,2349483.685,2350455.521,2351122.183,2351788.640,2352455.360,2353121.983,2353788.978,2354441.840,2350455.521,,,3.250,3.250,0.150,None,0,2026-07-14T15:50:06.3980505+02:00
pam,1,3,143,V,0,slow,narrow,,2356371.856,2356371.856,2357343.911,2357997.009,2358676.713,2359343.010,2360010.066,2360676.571,2361343.339,,,,,3.250,0.150,None,0,2026-07-14T15:50:12.7445476+02:00
pam,1,3,144,VT,1,slow,narrow,D6,2362926.009,2362926.009,2363898.114,2364550.767,2365231.080,2365897.451,2366564.151,2367230.617,2367897.936,2364550.767,2365342.544,791.8,2.733,3.250,0.150,None,0,2026-07-14T15:50:19.2985269+02:00
pam,1,3,145,T,1,slow,narrow,D1,2369161.437,,,,,,,,,2374132.566,2374855.056,722.5,0.150,3.250,0.150,None,0,2026-07-14T15:50:26.2429083+02:00
pam,1,3,146,T,0,slow,narrow,D7,2376243.531,,,,,,,,,2377215.560,,,3.250,3.250,0.150,None,0,2026-07-14T15:50:33.0735187+02:00
pam,1,3,147,T,1,fast,narrow,D7,2383477.629,,,,,,,,,2383852.594,2384838.387,985.8,3.250,3.250,0.150,None,0,2026-07-14T15:50:36.7528812+02:00
pam,1,3,148,V,0,fast,narrow,,2387032.473,2387032.473,2387407.291,2387657.408,2387907.755,2388157.477,2388407.394,2388657.565,2388907.245,,,,,3.250,0.150,None,0,2026-07-14T15:50:40.3078823+02:00
pam,1,3,149,T,1,slow,narrow,D7,2390281.953,,,,,,,,,2391254.235,2390476.487,-777.7,3.250,3.250,0.150,None,0,2026-07-14T15:50:46.6554386+02:00
pam,1,3,150,T,0,slow,narrow,D6,2396975.503,,,,,,,,,2398614.731,,,2.733,3.250,0.150,None,0,2026-07-14T15:50:54.0154294+02:00
pam,1,3,151,VT,1,fast,narrow,D1,2403989.018,2403989.018,2404363.811,2404599.912,2404863.715,2405113.752,2405350.163,2405613.760,2405863.485,2405863.485,2406224.468,361.0,0.150,3.250,0.150,None,0,2026-07-14T15:50:57.6127807+02:00
pam,1,3,152,T,1,slow,narrow,D7,2407599.506,,,,,,,,,2408571.605,2409585.406,1013.8,3.250,3.250,0.150,None,0,2026-07-14T15:51:03.9714241+02:00
pam,1,3,153,T,1,fast,narrow,D3,2414055.884,,,,,,,,,2415430.975,2416222.813,791.8,1.183,3.250,0.150,None,0,2026-07-14T15:51:07.6106695+02:00
pam,1,3,154,VT,1,fast,narrow,D1,2417486.679,2417486.679,2417861.874,2418111.434,2418361.208,2418611.225,2418861.075,2419111.439,2419361.183,2419361.183,2419958.147,597.0,0.150,3.250,0.150,None,0,2026-07-14T15:51:11.3458721+02:00
