{
    "metadata": {
        "participantId": "pam",
        "clinicianInitials": "",
        "sessionDate": "2026-07-14",
        "sessionId": "s1",
        "sessionNumber": 1,
        "ageYears": 0,
        "dominantHand": 0,
        "heightCm": 0.0,
        "shoulderWidthCm": 0.0,
        "subjectGroup": "",
        "hasDbs": false,
        "sessionType": 0,
        "dbsStatus": 0,
        "language": "",
        "eegEnabled": false,
        "emgEnabled": false,
        "heartRateBandEnabled": false,
        "eyeTrackingEnabled": false,
        "task1NumberOfBlocks": 3,
        "task1TrialsPerBlock": 154,
        "task1VtTrialsPerBlock": 70,
        "task1VisualOnlyTrialsPerBlock": 28,
        "task1TactileOnlyTrialsPerBlock": 56,
        "task1BreakDurationSeconds": 30.0,
        "task1NarrowOffsetCm": 0.0,
        "task1WideOffsetCm": 30.000001907348634,
        "task1LoomingSpeeds": [
            "slow",
            "fast"
        ],
        "task1PracticeVtOnlyTrials": 2,
        "task1PracticeVtVisualTrials": 4,
        "task2NumberOfBlocks": 0,
        "task2TrialsPerBlock": 0,
        "task2BreakDurationSeconds": 0.0,
        "task2HitOffsetCm": 0.0,
        "task2NearMissOffsetCm": 0.0,
        "task2MissOffsetCm": 0.0,
        "task2BallSpeeds": [],
        "clinicianNotes": ""
    },
    "timestamp": "2026-07-14T15:51:11.3480465+02:00",
    "totalTrials": 462,
    "results": [
        {
            "definition": {
                "trialId": "B1_T01",
                "blockIndex": 0,
                "trialIndex": 0,
                "isPractice": false,
                "modality": 1,
                "speed": 1,
                "width": 1,
                "vibrationStage": 3
            },
            "trialStartTime": 52.99332638888889,
            "loomOnsetTime": NaN,
            "d7OnsetTime": NaN,
            "crossingD7Time": NaN,
            "crossingD6Time": NaN,
            "crossingD5Time": NaN,
            "crossingD4Time": NaN,
            "crossingD3Time": NaN,
            "crossingD2Time": NaN,
            "crossingD1Time": NaN,
            "vibrationFiredTime": 55.96499999291383,
            "responseTime": 55.29874929138322,
            "responded": true,
            "reactionTimeMs": -666.2506713867188,
            "vibrationDeviceName": "None",
            "vibrationDistanceMeters": 1.7000000476837159,
            "loomStartMeters": 3.25,
            "loomEndMeters": 0.15000000596046449
        },
        {
            "definition": {
                "trialId": "B1_T02",
                "blockIndex": 0,
                "trialIndex": 1,
                "isPractice": false,
                "modality": 2,
                "speed": 0,
                "width": 1,
                "vibrationStage": 6
            },
            "trialStartTime": 59.56195408871882,
            "loomOnsetTime": 59.56195408871882,
            "d7OnsetTime": 59.936936890589567,
            "crossingD7Time": 59.936936890589567,
            "crossingD6Time": 60.18714459325397,
            "crossingD5Time": 60.42315128968254,
            "crossingD4Time": 60.6734814909297,
            "crossingD3Time": 60.936668090986398,
            "crossingD2Time": 61.186720089285717,
            "crossingD1Time": 61.43684169501134,
            "vibrationFiredTime": 61.43684169501134,
            "responseTime": 60.04831378968254,
            "responded": true,
            "reactionTimeMs": -1388.5279541015625,
            "vibrationDeviceName": "None",
            "vibrationDistanceMeters": 0.15000000596046449,
            "loomStartMeters": 3.25,
            "loomEndMeters": 0.15000000596046449
        },
        {
            "definition": {
                "trialId": "B1_T03",
                "blockIndex": 0,
                "trialIndex": 2,
                "isPractice": false,
                "modality": 0,
                "speed": 1,
                "width": 1,
                "vibrationStage": -1
            },
            "trialStartTime": 62.67265768849206,
            "loomOnsetTime": 62.67265768849206,
            "d7OnsetTime": 63.64512249149659,
            "crossingD7Time": 63.64512249149659,
            "crossingD6Time": 64.31184569160998,
            "crossingD5Time": 64.97792178996599,
            "crossingD4Time": 65.6444516935941,
            "crossingD3Time": 66.31067959183673,
            "crossingD2Time": 66.97720549178004,
            "crossingD1Time": 67.64411288973924,
            "vibrationFiredTime": NaN,
            "responseTime": 63.39498739370748,
            "responded": true,
            "reactionTimeMs": NaN,
            "vibrationDeviceName": "None",
            "vibrationDistanceMeters": NaN,
            "loomStartMeters": 3.25,
            "loomEndMeters": 0.15000000596046449
        },
        {
            "definition": {
                "trialId": "B1_T04",
                "blockIndex": 0,
                "trialIndex": 3,
                "isPractice": false,
                "modality": 0,
                "speed": 0,
                "width": 1,
                "vibrationStage": -1
            },
            "trialStartTime": 68.94895659013605,
            "loomOnsetTime": 68.94895659013605,
            "d7OnsetTime": 69.32440498866213,
            "crossingD7Time": 69.32440498866213,
            "crossingD6Time": 69.57405779478458,
            "crossingD5Time": 69.8241897888322,
            "crossingD4Time": 70.06004759070295,
            "crossingD3Time": 70.31025069444445,
            "crossingD2Time": 70.5601099914966,
            "crossingD1Time": 70.82374479166667,
            "vibrationFiredTime": NaN,
            "responseTime": 69.69899158871881,
            "responded": true,
            "reactionTimeMs": NaN,
            "vibrationDeviceName": "None",
            "vibrationDistanceMeters": NaN,
            "loomStartMeters": 3.25,
            "loomEndMeters": 0.15000000596046449
        },
        {
            "definition": {
                "trialId": "B1_T05",
                "blockIndex": 0,
                "trialIndex": 4,
                "isPractice": false,
                "modality": 1,
                "speed": 1,
                "width": 1,
                "vibrationStage": 3
            },
            "trialStartTime": 72.11501799178004,
            "loomOnsetTime": NaN,
            "d7OnsetTime": NaN,
            "crossingD7Time": NaN,
            "crossingD6Time": NaN,
            "crossingD5Time": NaN,
            "crossingD4Time": NaN,
            "crossingD3Time": NaN,
            "crossingD2Time": NaN,
            "crossingD1Time": NaN,
            "vibrationFiredTime": 75.08717159155329,
            "responseTime": 75.03183258928572,
            "responded": true,
            "reactionTimeMs": -55.3390007019043,
            "vibrationDeviceName": "None",
            "vibrationDistanceMeters": 1.7000000476837159,
            "loomStartMeters": 3.25,
            "loomEndMeters": 0.15000000596046449
        },
        {
            "definition": {
                "trialId": "B1_T06",
                "blockIndex": 0,
                "trialIndex": 5,
                "isPractice": false,
                "modality": 2,
                "speed": 1,
                "width": 1,
                "vibrationStage": 2
            },
            "trialStartTime": 78.39257379535147,
            "loomOnsetTime": 78.39257379535147,
            "d7OnsetTime": 79.36467908871882,
            "crossingD7Time": 79.36467908871882,
            "crossingD6Time": 80.03132069160998,
            "crossingD5Time": 80.69756709183673,
            "crossingD4Time": 81.3638397888322,
            "crossingD3Time": 82.03092889030612,
            "crossingD2Time": 82.69714009353742,
            "crossingD1Time": 83.36335359268708,
            "vibrationFiredTime": 80.69756709183673,
            "responseTime": 79.57310749007937,
            "responded": true,
            "reactionTimeMs": -1124.4595947265625,
            "vibrationDeviceName": "None",
            "vibrationDistanceMeters": 2.2166666984558107,
            "loomStartMeters": 3.25,
            "loomEndMeters": 0.15000000596046449
        },
        {
            "definition": {
                "trialId": "B1_T07",
                "blockIndex": 0,
                "trialIndex": 6,
                "isPractice": false,
                "modality": 2,
                "speed": 1,
                "width": 1,
                "vibrationStage": 4
            },
            "trialStartTime": 84.9049064909297,
            "loomOnsetTime": 84.9049064909297,
            "d7OnsetTime": 85.87711619189342,
            "crossingD7Time": 85.87711619189342,
            "crossingD6Time": 86.54374598922903,
            "crossingD5Time": 87.21020439342404,
            "crossingD4Time": 87.87670659013605,
            "crossingD3Time": 88.5431851899093,
            "crossingD2Time": 89.20973559382085,
            "crossingD1Time": 89.87666359126983,
            "vibrationFiredTime": 88.5431851899093,
            "responseTime": 87.1129645904195,
            "responded": true,
            "reactionTimeMs": -1430.2205810546875,
            "vibrationDeviceName": "None",
            "vibrationDistanceMeters": 1.1833332777023316,
            "loomStartMeters": 3.25,
            "loomEndMeters": 0.15000000596046449
        },
        {
            "definition": {
                "trialId": "B1_T08",
                "blockIndex": 0,
                "trialIndex": 7,
                "isPractice": false,
                "modality": 0,
                "speed": 1,
                "width": 1,
                "vibrationStage": -1
            },
            "trialStartTime": 91.5013970946712,
            "loomOnsetTime": 91.5013970946712,
            "d7OnsetTime": 92.47276999007936,
            "crossingD7Time": 92.47276999007936,
            "crossingD6Time": 93.12587299461451,
            "crossingD5Time": 93.79265799319728,
            "crossingD4Time": 94.45942559523809,
            "crossingD3Time": 95.13937969104308,
            "crossingD2Time": 95.80595289115647,
            "crossingD1Time": 96.4726599914966,
            "vibrationFiredTime": NaN,
            "responseTime": 92.68130938917233,
            "responded": true,
            "reactionTimeMs": NaN,
            "vibrationDeviceName": "None",
            "vibrationDistanceMeters": NaN,
            "loomStartMeters": 3.25,
            "loomEndMeters": 0.15000000596046449
        },
        {
            "definition": {
                "trialId": "B1_T09",
                "blockIndex": 0,
                "trialIndex": 8,
                "isPractice": false,
                "modality": 1,
                "speed": 1,
                "width": 1,
                "vibrationStage": 5
            },
            "trialStartTime": 97.77787949263038,
            "loomOnsetTime": NaN,
            "d7OnsetTime": NaN,
            "crossingD7Time": NaN,
            "crossingD6Time": NaN,
            "crossingD5Time": NaN,
            "crossingD4Time": NaN,
            "crossingD3Time": NaN,
            "crossingD2Time": NaN,
            "crossingD1Time": NaN,
            "vibrationFiredTime": 102.08218708900226,
            "responseTime": 98.47250899234693,
            "responded": true,
            "reactionTimeMs": -3609.677978515625,
            "vibrationDeviceName": "None",
            "vibrationDistanceMeters": 0.6666667461395264,
            "loomStartMeters": 3.25,
            "loomEndMeters": 0.15000000596046449
        },
        {
            "definition": {
                "trialId": "B1_T10",
                "blockIndex": 0,
                "trialIndex": 9,
                "isPractice": false,
                "modality": 2,
                "speed": 1,
                "width": 1,
                "vibrationStage": 0
            },
            "trialStartTime": 104.37383339002267,
            "loomOnsetTime": 104.37383339002267,
            "d7OnsetTime": 105.3458678925737,
            "crossingD7Time": 105.3458678925737,
            "crossingD6Time": 106.0123755952381,
            "crossingD5Time": 106.67910419501134,
            "crossingD4Time": 107.34638649376417,
            "crossingD3Time": 107.9991476899093,
            "crossingD2Time": 108.67870739087302,
            "crossingD1Time": 109.34494499007936,
            "vibrationFiredTime": 105.3458678925737,
            "responseTime": NaN,
            "responded": false,
            "reactionTimeMs": NaN,
            "vibrationDeviceName": "None",
            "vibrationDistanceMeters": 3.25,
            "loomStartMeters": 3.25,
            "loomEndMeters": 0.15000000596046449
        },
        {
            "definition": {
                "trialId": "B1_T11",
                "blockIndex": 0,
                "trialIndex": 10,
                "isPractice": false,
                "modality": 2,
                "speed": 1,
                "width": 1,
                "vibrationStage": 5
            },
            "trialStartTime": 111.10858729450114,
            "loomOnsetTime": 111.10858729450114,
            "d7OnsetTime": 112.08050349348072,
            "crossingD7Time": 112.08050349348072,
            "crossingD6Time": 112.73333409155329,
            "crossingD5Time": 113.40036108985261,
            "crossingD4Time": 114.08024479166666,
            "crossingD3Time": 114.74692609126984,
            "crossingD2Time": 115.41337069160997,
            "crossingD1Time": 116.06644659155329,
            "vibrationFiredTime": 115.41337069160997,
            "responseTime": 115.13607998866213,
            "responded": true,
            "reactionTimeMs": -277.29071044921877,
            "vibrationDeviceName": "None",
            "vibrationDistanceMeters": 0.6666667461395264,
            "loomStartMeters": 3.25,
            "loomEndMeters": 0.15000000596046449
        },
        {
            "definition": {
                "trialId": "B1_T12",
                "blockIndex": 0,
                "trialIndex": 11,
                "isPractice": false,
                "modality": 1,
                "speed": 0,
                "width": 1,
                "vibrationStage": 1
            },
            "trialStartTime": 117.48200829081633,
            "loomOnsetTime": NaN,
            "d7OnsetTime": NaN,
            "crossingD7Time": NaN,
            "crossingD6Time": NaN,
            "crossingD5Time": NaN,
            "crossingD4Time": NaN,
            "crossingD3Time": NaN,
            "crossingD2Time": NaN,
            "crossingD1Time": NaN,
            "vibrationFiredTime": 118.10701689342403,
            "responseTime": NaN,
            "responded": false,
            "reactionTimeMs": NaN,
            "vibrationDeviceName": "None",
            "vibrationDistanceMeters": 2.7333333492279054,
            "loomStartMeters": 3.25,
            "loomEndMeters": 0.15000000596046449
        },
        {
            "definition": {
                "trialId": "B1_T13",
                "blockIndex": 0,
                "trialIndex": 12,
                "isPractice": false,
                "modality": 2,
                "speed": 1,
                "width": 1,
                "vibrationStage": 1
            },
            "trialStartTime": 121.245881292517,
            "loomOnsetTime": 121.245881292517,
            "d7OnsetTime": 122.21808929280044,
            "crossingD7Time": 122.21808929280044,
            "crossingD6Time": 122.88423569302721,
            "crossingD5Time": 123.55090408871881,
            "crossingD4Time": 124.2174106930272,
            "crossingD3Time": 124.8839514951814,
            "crossingD2Time": 125.55044269416099,
            "crossingD1Time": 126.21692108843537,
            "vibrationFiredTime": 122.88423569302721,
            "responseTime": NaN,
            "responded": false,
            "reactionTimeMs": NaN,
            "vibrationDeviceName": "None",
            "vibrationDistanceMeters": 2.7333333492279054,
            "loomStartMeters": 3.25,
            "loomEndMeters": 0.15000000596046449
        },
        {
            "definition": {
                "trialId": "B1_T14",
                "blockIndex": 0,
                "trialIndex": 13,
                "isPractice": false,
                "modality": 0,
                "speed": 1,
                "width": 1,
                "vibrationStage": -1
            },
            "trialStartTime": 128.50826369047619,
            "loomOnsetTime": 128.50826369047619,
            "d7OnsetTime": 129.4804472930839,
            "crossingD7Time": 129.4804472930839,
            "crossingD6Time": 130.14698759212019,
            "crossingD5Time": 130.81324678996598,
            "crossingD4Time": 131.47996039540818,
            "crossingD3Time": 132.14647879109979,
            "crossingD2Time": 132.8134678925737,
            "crossingD1Time": 133.48001579506804,
            "vibrationFiredTime": NaN,
            "responseTime": NaN,
            "responded": false,
            "reactionTimeMs": NaN,
            "vibrationDeviceName": "None",
            "vibrationDistanceMeters": NaN,
            "loomStartMeters": 3.25,
            "loomEndMeters": 0.15000000596046449
        },
        {
            "definition": {
                "trialId": "B1_T15",
                "blockIndex": 0,
                "trialIndex": 14,
                "isPractice": false,
                "modality": 1,
                "speed": 0,
                "width": 1,
                "vibrationStage": 1
            },
            "trialStartTime": 135.27162018849206,
            "loomOnsetTime": NaN,
            "d7OnsetTime": NaN,
            "crossingD7Time": NaN,
            "crossingD6Time": NaN,
            "crossingD5Time": NaN,
            "crossingD4Time": NaN,
            "crossingD3Time": NaN,
            "crossingD2Time": NaN,
            "crossingD1Time": NaN,
            "vibrationFiredTime": 135.8965828939909,
            "responseTime": NaN,
            "responded": false,
            "reactionTimeMs": NaN,
            "vibrationDeviceName": "None",
            "vibrationDistanceMeters": 2.7333333492279054,
            "loomStartMeters": 3.25,
            "loomEndMeters": 0.15000000596046449
        },
        {
            "definition": {
                "trialId": "B1_T16",
                "blockIndex": 0,
                "trialIndex": 15,
                "isPractice": false,
                "modality": 1,
                "speed": 1,
                "width": 1,
                "vibrationStage": 2
            },
            "trialStartTime": 140.07666909013606,
            "loomOnsetTime": NaN,
            "d7OnsetTime": NaN,
            "crossingD7Time": NaN,
            "crossingD6Time": NaN,
            "crossingD5Time": NaN,
            "crossingD4Time": NaN,
            "crossingD3Time": NaN,
            "crossingD2Time": NaN,
            "crossingD1Time": NaN,
            "vibrationFiredTime": 142.3818654903628,
            "responseTime": NaN,
            "responded": false,
            "reactionTimeMs": NaN,
            "vibrationDeviceName": "None",
            "vibrationDistanceMeters": 2.2166666984558107,
            "loomStartMeters": 3.25,
            "loomEndMeters": 0.15000000596046449
        },
        {
            "definition": {
                "trialId": "B1_T17",
                "blockIndex": 0,
                "trialIndex": 16,
                "isPractice": false,
                "modality": 2,
                "speed": 1,
                "width": 1,
                "vibrationStage": 6
            },
            "trialStartTime": 147.25560048894557,
            "loomOnsetTime": 147.25560048894557,
            "d7OnsetTime": 148.2276393920068,
            "crossingD7Time": 148.2276393920068,
            "crossingD6Time": 148.88045949546484,
            "crossingD5Time": 149.54751689342403,
            "crossingD4Time": 150.22773258928573,
            "crossingD3Time": 150.8805152919501,
            "crossingD2Time": 151.5608413903061,
            "crossingD1Time": 152.22732859268707,
            "vibrationFiredTime": 152.22732859268707,
            "responseTime": 148.51932409297053,
            "responded": true,
            "reactionTimeMs": -3708.00439453125,
            "vibrationDeviceName": "None",
            "vibrationDistanceMeters": 0.15000000596046449,
            "loomStartMeters": 3.25,
            "loomEndMeters": 0.15000000596046449
        },
        {
            "definition": {
                "trialId": "B1_T18",
                "blockIndex": 0,
                "trialIndex": 17,
                "isPractice": false,
                "modality": 1,
                "speed": 0,
                "width": 1,
                "vibrationStage": 3
            },
            "trialStartTime": 154.0044498937075,
            "loomOnsetTime": NaN,
            "d7OnsetTime": NaN,
            "crossingD7Time": NaN,
            "crossingD6Time": NaN,
            "crossingD5Time": NaN,
            "crossingD4Time": NaN,
            "crossingD3Time": NaN,
            "crossingD2Time": NaN,
            "crossingD1Time": NaN,
            "vibrationFiredTime": 155.12497859268707,
            "responseTime": 155.15271129535149,
            "responded": true,
            "reactionTimeMs": 27.732702255249025,
            "vibrationDeviceName": "None",
            "vibrationDistanceMeters": 1.7000000476837159,
            "loomStartMeters": 3.25,
            "loomEndMeters": 0.15000000596046449
        },
        {
            "definition": {
                "trialId": "B1_T19",
                "blockIndex": 0,
                "trialIndex": 18,
                "isPractice": false,
                "modality": 2,
                "speed": 1,
                "width": 1,
                "vibrationStage": 1
            },
            "trialStartTime": 157.15461429280047,
            "loomOnsetTime": 157.15461429280047,
            "d7OnsetTime": 158.12728159013606,
            "crossingD7Time": 158.12728159013606,
            "crossingD6Time": 158.78015938917233,
            "crossingD5Time": 159.4604641935941,
            "crossingD4Time": 160.12721129535147,
            "crossingD3Time": 160.79372779195013,
            "crossingD2Time": 161.44674749149659,
            "crossingD1Time": 162.12779338860543,
            "vibrationFiredTime": 158.78015938917233,
            "responseTime": NaN,
            "responded": false,
            "reactionTimeMs": NaN,
            "vibrationDeviceName": "None",
            "vibrationDistanceMeters": 2.7333333492279054,
            "loomStartMeters": 3.25,
            "loomEndMeters": 0.15000000596046449
        },
        {
            "definition": {
                "trialId": "B1_T20",
                "blockIndex": 0,
                "trialIndex": 19,
                "isPractice": false,
                "modality": 2,
                "speed": 0,
                "width": 1,
                "vibrationStage": 3
            },
            "trialStartTime": 164.36274299178005,
            "loomOnsetTime": 164.36274299178005,
            "d7OnsetTime": 164.7376391935941,
            "crossingD7Time": 164.7376391935941,
            "crossingD6Time": 164.97423518990929,
            "crossingD5Time": 165.2376946924603,
            "crossingD4Time": 165.48796279053287,
            "crossingD3Time": 165.73755199121315,
            "crossingD2Time": 165.98778719529478,
            "crossingD1Time": 166.23788528911565,
            "vibrationFiredTime": 165.48796279053287,
            "responseTime": NaN,
            "responded": false,
            "reactionTimeMs": NaN,
            "vibrationDeviceName": "None",
            "vibrationDistanceMeters": 1.7000000476837159,
            "loomStartMeters": 3.25,
            "loomEndMeters": 0.15000000596046449
        },
        {
            "definition": {
                "trialId": "B1_T21",
                "blockIndex": 0,
                "trialIndex": 20,
                "isPractice": false,
                "modality": 0,
                "speed": 1,
                "width": 1,
                "vibrationStage": -1
            },
            "trialStartTime": 168.83466169217687,
            "loomOnsetTime": 168.83466169217687,
            "d7OnsetTime": 169.80648708900228,
            "crossingD7Time": 169.80648708900228,
            "crossingD6Time": 170.4728805909864,
            "crossingD5Time": 171.13949058956917,
            "crossingD4Time": 171.80590549178005,
            "crossingD3Time": 172.4725356930272,
            "crossingD2Time": 173.1391369897959,
            "crossingD1Time": 173.8054255952381,
            "vibrationFiredTime": NaN,
            "responseTime": NaN,
            "responded": false,
            "reactionTimeMs": NaN,
            "vibrationDeviceName": "None",
            "vibrationDistanceMeters": NaN,
            "loomStartMeters": 3.25,
            "loomEndMeters": 0.15000000596046449
        },
        {
            "definition": {
                "trialId": "B1_T22",
                "blockIndex": 0,
                "trialIndex": 21,
                "isPractice": false,
                "modality": 2,
                "speed": 0,
                "width": 1,
                "vibrationStage": 1
            },
            "trialStartTime": 175.33353069019274,
            "loomOnsetTime": 175.33353069019274,
            "d7OnsetTime": 175.70843618905895,
            "crossingD7Time": 175.70843618905895,
            "crossingD6Time": 175.95843788973924,
            "crossingD5Time": 176.20834649234693,
            "crossingD4Time": 176.45865179280046,
            "crossingD3Time": 176.69473509070296,
            "crossingD2Time": 176.95830829081633,
            "crossingD1Time": 177.2081786918934,
            "vibrationFiredTime": 175.95843788973924,
            "responseTime": NaN,
            "responded": false,
            "reactionTimeMs": NaN,
            "vibrationDeviceName": "None",
            "vibrationDistanceMeters": 2.7333333492279054,
            "loomStartMeters": 3.25,
            "loomEndMeters": 0.15000000596046449
        },
        {
            "definition": {
                "trialId": "B1_T23",
                "blockIndex": 0,
                "trialIndex": 22,
                "isPractice": false,
                "modality": 2,
                "speed": 1,
                "width": 1,
                "vibrationStage": 3
            },
            "trialStartTime": 179.58286639030613,
            "loomOnsetTime": 179.58286639030613,
            "d7OnsetTime": 180.5546270904195,
            "crossingD7Time": 180.5546270904195,
            "crossingD6Time": 181.20766599348074,
            "crossingD5Time": 181.88769739229026,
            "crossingD4Time": 182.5541821924603,
            "crossingD3Time": 183.22073539540816,
            "crossingD2Time": 183.8740564909297,
            "crossingD1Time": 184.5543055909864,
            "vibrationFiredTime": 182.5541821924603,
            "responseTime": NaN,
            "responded": false,
            "reactionTimeMs": NaN,
            "vibrationDeviceName": "None",
            "vibrationDistanceMeters": 1.7000000476837159,
            "loomStartMeters": 3.25,
            "loomEndMeters": 0.15000000596046449
        },
        {
            "definition": {
                "trialId": "B1_T24",
                "blockIndex": 0,
                "trialIndex": 23,
                "isPractice": false,
                "modality": 1,
                "speed": 0,
                "width": 1,
                "vibrationStage": 6
            },
            "trialStartTime": 187.02572309382087,
            "loomOnsetTime": NaN,
            "d7OnsetTime": NaN,
            "crossingD7Time": NaN,
            "crossingD6Time": NaN,
            "crossingD5Time": NaN,
            "crossingD4Time": NaN,
            "crossingD3Time": NaN,
            "crossingD2Time": NaN,
            "crossingD1Time": NaN,
            "vibrationFiredTime": 188.90037849348074,
            "responseTime": 189.6924296910431,
            "responded": true,
            "reactionTimeMs": 792.0512084960938,
            "vibrationDeviceName": "None",
            "vibrationDistanceMeters": 0.15000000596046449,
            "loomStartMeters": 3.25,
            "loomEndMeters": 0.15000000596046449
        },
        {
            "definition": {
                "trialId": "B1_T25",
                "blockIndex": 0,
                "trialIndex": 24,
                "isPractice": false,
                "modality": 2,
                "speed": 0,
                "width": 1,
                "vibrationStage": 1
            },
            "trialStartTime": 191.0119983914399,
            "loomOnsetTime": 191.0119983914399,
            "d7OnsetTime": 191.38685689484127,
            "crossingD7Time": 191.38685689484127,
            "crossingD6Time": 191.63689019274376,
            "crossingD5Time": 191.87329868905895,
            "crossingD4Time": 192.1370231930272,
            "crossingD3Time": 192.37349809382085,
            "crossingD2Time": 192.6233185941043,
            "crossingD1Time": 192.8736284934807,
            "vibrationFiredTime": 191.63689019274376,
            "responseTime": 192.5955764951814,
            "responded": true,
            "reactionTimeMs": 958.686279296875,
            "vibrationDeviceName": "None",
            "vibrationDistanceMeters": 2.7333333492279054,
            "loomStartMeters": 3.25,
            "loomEndMeters": 0.15000000596046449
        },
        {
            "definition": {
                "trialId": "B1_T26",
                "blockIndex": 0,
                "trialIndex": 25,
                "isPractice": false,
                "modality": 2,
                "speed": 0,
                "width": 1,
                "vibrationStage": 3
            },
            "trialStartTime": 194.63690249433106,
            "loomOnsetTime": 194.63690249433106,
            "d7OnsetTime": 195.011418792517,
            "crossingD7Time": 195.011418792517,
            "crossingD6Time": 195.2613639951814,
            "crossingD5Time": 195.5116128897392,
            "crossingD4Time": 195.7613347930839,
            "crossingD3Time": 196.0118389951814,
            "crossingD2Time": 196.26109338860545,
            "crossingD1Time": 196.51094099348072,
            "vibrationFiredTime": 195.7613347930839,
            "responseTime": 195.78938149092969,
            "responded": true,
            "reactionTimeMs": 28.04669761657715,
            "vibrationDeviceName": "None",
            "vibrationDistanceMeters": 1.7000000476837159,
            "loomStartMeters": 3.25,
            "loomEndMeters": 0.15000000596046449
        },
        {
            "definition": {
                "trialId": "B1_T27",
                "blockIndex": 0,
                "trialIndex": 26,
                "isPractice": false,
                "modality": 2,
                "speed": 0,
                "width": 1,
                "vibrationStage": 0
            },
            "trialStartTime": 198.17751139455783,
            "loomOnsetTime": 198.17751139455783,
            "d7OnsetTime": 198.55227049319729,
            "crossingD7Time": 198.55227049319729,
            "crossingD6Time": 198.80231719104308,
            "crossingD5Time": 199.05216298894559,
            "crossingD4Time": 199.30230398951248,
            "crossingD3Time": 199.55188419075965,
            "crossingD2Time": 199.80197589285715,
            "crossingD1Time": 200.05161319444444,
            "vibrationFiredTime": 198.55227049319729,
            "responseTime": 198.99644589002268,
            "responded": true,
            "reactionTimeMs": 444.1753845214844,
            "vibrationDeviceName": "None",
            "vibrationDistanceMeters": 3.25,
            "loomStartMeters": 3.25,
            "loomEndMeters": 0.15000000596046449
        },
        {
            "definition": {
                "trialId": "B1_T28",
                "blockIndex": 0,
                "trialIndex": 27,
                "isPractice": false,
                "modality": 1,
                "speed": 1,
                "width": 1,
                "vibrationStage": 5
            },
            "trialStartTime": 201.5793023951247,
            "loomOnsetTime": NaN,
            "d7OnsetTime": NaN,
            "crossingD7Time": NaN,
            "crossingD6Time": NaN,
            "crossingD5Time": NaN,
            "crossingD4Time": NaN,
            "crossingD3Time": NaN,
            "crossingD2Time": NaN,
            "crossingD1Time": NaN,
            "vibrationFiredTime": 205.88387769274377,
            "responseTime": 202.8014805909864,
            "responded": true,
            "reactionTimeMs": -3082.397216796875,
            "vibrationDeviceName": "None",
            "vibrationDistanceMeters": 0.6666667461395264,
            "loomStartMeters": 3.25,
            "loomEndMeters": 0.15000000596046449
        },
        {
            "definition": {
                "trialId": "B1_T29",
                "blockIndex": 0,
                "trialIndex": 28,
                "isPractice": false,
                "modality": 1,
                "speed": 0,
                "width": 1,
                "vibrationStage": 6
            },
            "trialStartTime": 207.78653309240364,
            "loomOnsetTime": NaN,
            "d7OnsetTime": NaN,
            "crossingD7Time": NaN,
            "crossingD6Time": NaN,
            "crossingD5Time": NaN,
            "crossingD4Time": NaN,
            "crossingD3Time": NaN,
            "crossingD2Time": NaN,
            "crossingD1Time": NaN,
            "vibrationFiredTime": 209.6609766935941,
            "responseTime": 208.8418856930272,
            "responded": true,
            "reactionTimeMs": -819.0910034179688,
            "vibrationDeviceName": "None",
            "vibrationDistanceMeters": 0.15000000596046449,
            "loomStartMeters": 3.25,
            "loomEndMeters": 0.15000000596046449
        },
        {
            "definition": {
                "trialId": "B1_T30",
                "blockIndex": 0,
                "trialIndex": 29,
                "isPractice": false,
                "modality": 2,
                "speed": 0,
                "width": 1,
                "vibrationStage": 0
            },
            "trialStartTime": 211.25791779336735,
            "loomOnsetTime": 211.25791779336735,
            "d7OnsetTime": 211.63308559382086,
            "crossingD7Time": 211.63308559382086,
            "crossingD6Time": 211.86899199263039,
            "crossingD5Time": 212.11914849064625,
            "crossingD4Time": 212.36934899376417,
            "crossingD3Time": 212.63273279478458,
            "crossingD2Time": 212.88327489370747,
            "crossingD1Time": 213.15021959325396,
            "vibrationFiredTime": 211.63308559382086,
            "responseTime": NaN,
            "responded": false,
            "reactionTimeMs": NaN,
            "vibrationDeviceName": "None",
            "vibrationDistanceMeters": 3.25,
            "loomStartMeters": 3.25,
            "loomEndMeters": 0.15000000596046449
        },
        {
            "definition": {
                "trialId": "B1_T31",
                "blockIndex": 0,
                "trialIndex": 30,
                "isPractice": false,
                "modality": 0,
                "speed": 0,
                "width": 1,
                "vibrationStage": -1
            },
            "trialStartTime": 215.46438708900227,
            "loomOnsetTime": 215.46438708900227,
            "d7OnsetTime": 215.83929829223357,
            "crossingD7Time": 215.83929829223357,
            "crossingD6Time": 216.07554709467119,
            "crossingD5Time": 216.3255134920635,
            "crossingD4Time": 216.57551699263039,
            "crossingD3Time": 216.8256060941043,
            "crossingD2Time": 217.0755011904762,
            "crossingD1Time": 217.3256781887755,
            "vibrationFiredTime": NaN,
            "responseTime": NaN,
            "responded": false,
            "reactionTimeMs": NaN,
            "vibrationDeviceName": "None",
            "vibrationDistanceMeters": NaN,
            "loomStartMeters": 3.25,
            "loomEndMeters": 0.15000000596046449
        },
        {
            "definition": {
                "trialId": "B1_T32",
                "blockIndex": 0,
                "trialIndex": 31,
                "isPractice": false,
                "modality": 2,
                "speed": 0,
                "width": 1,
                "vibrationStage": 6
            },
            "trialStartTime": 218.5894656887755,
            "loomOnsetTime": 218.5894656887755,
            "d7OnsetTime": 218.9643349914966,
            "crossingD7Time": 218.9643349914966,
            "crossingD6Time": 219.20082519132652,
            "crossingD5Time": 219.46474158871883,
            "crossingD4Time": 219.7144518920068,
            "crossingD3Time": 219.95052039399094,
            "crossingD2Time": 220.21418159013604,
            "crossingD1Time": 220.45041619189343,
            "vibrationFiredTime": 220.45041619189343,
            "responseTime": NaN,
            "responded": false,
            "reactionTimeMs": NaN,
            "vibrationDeviceName": "None",
            "vibrationDistanceMeters": 0.15000000596046449,
            "loomStartMeters": 3.25,
            "loomEndMeters": 0.15000000596046449
        },
        {
            "definition": {
                "trialId": "B1_T33",
                "blockIndex": 0,
                "trialIndex": 32,
                "isPractice": false,
                "modality": 2,
                "speed": 1,
                "width": 1,
                "vibrationStage": 3
            },
            "trialStartTime": 223.88011208900228,
            "loomOnsetTime": 223.88011208900228,
            "d7OnsetTime": 224.852242694161,
            "crossingD7Time": 224.852242694161,
            "crossingD6Time": 225.50525029053288,
            "crossingD5Time": 226.17202309382086,
            "crossingD4Time": 226.8521439909297,
            "crossingD3Time": 227.51888539540816,
            "crossingD2Time": 228.18522229308389,
            "crossingD1Time": 228.8511738945578,
            "vibrationFiredTime": 226.8521439909297,
            "responseTime": 227.3244000921202,
            "responded": true,
            "reactionTimeMs": 472.256103515625,
            "vibrationDeviceName": "None",
            "vibrationDistanceMeters": 1.7000000476837159,
            "loomStartMeters": 3.25,
            "loomEndMeters": 0.15000000596046449
        },
        {
            "definition": {
                "trialId": "B1_T34",
                "blockIndex": 0,
                "trialIndex": 33,
                "isPractice": false,
                "modality": 2,
                "speed": 0,
                "width": 1,
                "vibrationStage": 1
            },
            "trialStartTime": 230.08713659297053,
            "loomOnsetTime": 230.08713659297053,
            "d7OnsetTime": 230.46245089285714,
            "crossingD7Time": 230.46245089285714,
            "crossingD6Time": 230.71241369047619,
            "crossingD5Time": 230.96217808956917,
            "crossingD4Time": 231.2121253897392,
            "crossingD3Time": 231.46264209183674,
            "crossingD2Time": 231.71234459325397,
            "crossingD1Time": 231.9621759920635,
            "vibrationFiredTime": 230.71241369047619,
            "responseTime": 231.14288999433107,
            "responded": true,
            "reactionTimeMs": 430.476318359375,
            "vibrationDeviceName": "None",
            "vibrationDistanceMeters": 2.7333333492279054,
            "loomStartMeters": 3.25,
            "loomEndMeters": 0.15000000596046449
        },
        {
            "definition": {
                "trialId": "B1_T35",
                "blockIndex": 0,
                "trialIndex": 34,
                "isPractice": false,
                "modality": 0,
                "speed": 0,
                "width": 1,
                "vibrationStage": -1
            },
            "trialStartTime": 233.25351949404763,
            "loomOnsetTime": 233.25351949404763,
            "d7OnsetTime": 233.62863788973923,
            "crossingD7Time": 233.62863788973923,
            "crossingD6Time": 233.87858449546486,
            "crossingD5Time": 234.12876799178003,
            "crossingD4Time": 234.37938669217687,
            "crossingD3Time": 234.6290097930839,
            "crossingD2Time": 234.87927739512473,
            "crossingD1Time": 235.12908788973923,
            "vibrationFiredTime": NaN,
            "responseTime": NaN,
            "responded": false,
            "reactionTimeMs": NaN,
            "vibrationDeviceName": "None",
            "vibrationDistanceMeters": NaN,
            "loomStartMeters": 3.25,
            "loomEndMeters": 0.15000000596046449
        },
        {
            "definition": {
                "trialId": "B1_T36",
                "blockIndex": 0,
                "trialIndex": 35,
                "isPractice": false,
                "modality": 1,
                "speed": 1,
                "width": 1,
                "vibrationStage": 4
            },
            "trialStartTime": 236.64346729024943,
            "loomOnsetTime": NaN,
            "d7OnsetTime": NaN,
            "crossingD7Time": NaN,
            "crossingD6Time": NaN,
            "crossingD5Time": NaN,
            "crossingD4Time": NaN,
            "crossingD3Time": NaN,
            "crossingD2Time": NaN,
            "crossingD1Time": NaN,
            "vibrationFiredTime": 240.28260389030613,
            "responseTime": 239.6576479946145,
            "responded": true,
            "reactionTimeMs": -624.9558715820313,
            "vibrationDeviceName": "None",
            "vibrationDistanceMeters": 1.1833332777023316,
            "loomStartMeters": 3.25,
            "loomEndMeters": 0.15000000596046449
        },
        {
            "definition": {
                "trialId": "B1_T37",
                "blockIndex": 0,
                "trialIndex": 36,
                "isPractice": false,
                "modality": 2,
                "speed": 1,
                "width": 1,
                "vibrationStage": 4
            },
            "trialStartTime": 243.37882829506803,
            "loomOnsetTime": 243.37882829506803,
            "d7OnsetTime": 244.3510430909864,
            "crossingD7Time": 244.3510430909864,
            "crossingD6Time": 245.01716799178005,
            "crossingD5Time": 245.68372569444444,
            "crossingD4Time": 246.35044569160997,
            "crossingD3Time": 247.01743909438776,
            "crossingD2Time": 247.6837461947279,
            "crossingD1Time": 248.349967694161,
            "vibrationFiredTime": 247.01743909438776,
            "responseTime": 247.39216018990928,
            "responded": true,
            "reactionTimeMs": 374.7210998535156,
            "vibrationDeviceName": "None",
            "vibrationDistanceMeters": 1.1833332777023316,
            "loomStartMeters": 3.25,
            "loomEndMeters": 0.15000000596046449
        },
        {
            "definition": {
                "trialId": "B1_T38",
                "blockIndex": 0,
                "trialIndex": 37,
                "isPractice": false,
                "modality": 2,
                "speed": 1,
                "width": 1,
                "vibrationStage": 2
            },
            "trialStartTime": 250.14128729450113,
            "loomOnsetTime": 250.14128729450113,
            "d7OnsetTime": 251.11291979166666,
            "crossingD7Time": 251.11291979166666,
            "crossingD6Time": 251.76586059382087,
            "crossingD5Time": 252.43256009070294,
            "crossingD4Time": 253.09927599206348,
            "crossingD3Time": 253.77935128968253,
            "crossingD2Time": 254.4460720946712,
            "crossingD1Time": 255.11273019416098,
            "vibrationFiredTime": 252.43256009070294,
            "responseTime": 252.76558689058957,
            "responded": true,
            "reactionTimeMs": 333.02679443359377,
            "vibrationDeviceName": "None",
            "vibrationDistanceMeters": 2.2166666984558107,
            "loomStartMeters": 3.25,
            "loomEndMeters": 0.15000000596046449
        },
        {
            "definition": {
                "trialId": "B1_T39",
                "blockIndex": 0,
                "trialIndex": 38,
                "isPractice": false,
                "modality": 2,
                "speed": 0,
                "width": 1,
                "vibrationStage": 0
            },
            "trialStartTime": 256.59831449121318,
            "loomOnsetTime": 256.59831449121318,
            "d7OnsetTime": 256.97309789540818,
            "crossingD7Time": 256.97309789540818,
            "crossingD6Time": 257.2235674886621,
            "crossingD5Time": 257.47280949546486,
            "crossingD4Time": 257.72284879535148,
            "crossingD3Time": 257.9729297902494,
            "crossingD2Time": 258.22290269274375,
            "crossingD1Time": 258.47273469387757,
            "vibrationFiredTime": 256.97309789540818,
            "responseTime": 257.3756386904762,
            "responded": true,
            "reactionTimeMs": 402.5408020019531,
            "vibrationDeviceName": "None",
            "vibrationDistanceMeters": 3.25,
            "loomStartMeters": 3.25,
            "loomEndMeters": 0.15000000596046449
        },
        {
            "definition": {
                "trialId": "B1_T40",
                "blockIndex": 0,
                "trialIndex": 39,
                "isPractice": false,
                "modality": 2,
                "speed": 1,
                "width": 1,
                "vibrationStage": 6
            },
            "trialStartTime": 260.12477949263037,
            "loomOnsetTime": 260.12477949263037,
            "d7OnsetTime": 261.0969439909297,
            "crossingD7Time": 261.0969439909297,
            "crossingD6Time": 261.74968809523809,
            "crossingD5Time": 262.4301779903628,
            "crossingD4Time": 263.08317439058955,
            "crossingD3Time": 263.76319549319728,
            "crossingD2Time": 264.4295228954081,
            "crossingD1Time": 265.09620779478458,
            "vibrationFiredTime": 265.09620779478458,
            "responseTime": 263.041458489229,
            "responded": true,
            "reactionTimeMs": -2054.749267578125,
            "vibrationDeviceName": "None",
            "vibrationDistanceMeters": 0.15000000596046449,
            "loomStartMeters": 3.25,
            "loomEndMeters": 0.15000000596046449
        },
        {
            "definition": {
                "trialId": "B1_T41",
                "blockIndex": 0,
                "trialIndex": 40,
                "isPractice": false,
                "modality": 0,
                "speed": 1,
                "width": 1,
                "vibrationStage": -1
            },
            "trialStartTime": 266.6794527919501,
            "loomOnsetTime": 266.6794527919501,
            "d7OnsetTime": 267.65172499291386,
            "crossingD7Time": 267.65172499291386,
            "crossingD6Time": 268.318083489229,
            "crossingD5Time": 268.98454409013609,
            "crossingD4Time": 269.6512256944444,
            "crossingD3Time": 270.3175376913265,
            "crossingD2Time": 270.9838318948413,
            "crossingD1Time": 271.65042389455785,
            "vibrationFiredTime": NaN,
            "responseTime": NaN,
            "responded": false,
            "reactionTimeMs": NaN,
            "vibrationDeviceName": "None",
            "vibrationDistanceMeters": NaN,
            "loomStartMeters": 3.25,
            "loomEndMeters": 0.15000000596046449
        },
        {
            "definition": {
                "trialId": "B1_T42",
                "blockIndex": 0,
                "trialIndex": 41,
                "isPractice": false,
                "modality": 1,
                "speed": 1,
                "width": 1,
                "vibrationStage": 4
            },
            "trialStartTime": 273.06679058956918,
            "loomOnsetTime": NaN,
            "d7OnsetTime": NaN,
            "crossingD7Time": NaN,
            "crossingD6Time": NaN,
            "crossingD5Time": NaN,
            "crossingD4Time": NaN,
            "crossingD3Time": NaN,
            "crossingD2Time": NaN,
            "crossingD1Time": NaN,
            "vibrationFiredTime": 276.70517789115645,
            "responseTime": NaN,
            "responded": false,
            "reactionTimeMs": NaN,
            "vibrationDeviceName": "None",
            "vibrationDistanceMeters": 1.1833332777023316,
            "loomStartMeters": 3.25,
            "loomEndMeters": 0.15000000596046449
        },
        {
            "definition": {
                "trialId": "B1_T43",
                "blockIndex": 0,
                "trialIndex": 42,
                "isPractice": false,
                "modality": 1,
                "speed": 0,
                "width": 1,
                "vibrationStage": 0
            },
            "trialStartTime": 279.96742458900225,
            "loomOnsetTime": NaN,
            "d7OnsetTime": NaN,
            "crossingD7Time": NaN,
            "crossingD6Time": NaN,
            "crossingD5Time": NaN,
            "crossingD4Time": NaN,
            "crossingD3Time": NaN,
            "crossingD2Time": NaN,
            "crossingD1Time": NaN,
            "vibrationFiredTime": 280.34240289115646,
            "responseTime": NaN,
            "responded": false,
            "reactionTimeMs": NaN,
            "vibrationDeviceName": "None",
            "vibrationDistanceMeters": 3.25,
            "loomStartMeters": 3.25,
            "loomEndMeters": 0.15000000596046449
        },
        {
            "definition": {
                "trialId": "B1_T44",
                "blockIndex": 0,
                "trialIndex": 43,
                "isPractice": false,
                "modality": 2,
                "speed": 0,
                "width": 1,
                "vibrationStage": 0
            },
            "trialStartTime": 284.3283882936508,
            "loomOnsetTime": 284.3283882936508,
            "d7OnsetTime": 284.70309778911566,
            "crossingD7Time": 284.70309778911566,
            "crossingD6Time": 284.9532816893424,
            "crossingD5Time": 285.20303809523809,
            "crossingD4Time": 285.453004393424,
            "crossingD3Time": 285.70310889314057,
            "crossingD2Time": 285.9529757936508,
            "crossingD1Time": 286.1892712939342,
            "vibrationFiredTime": 284.70309778911566,
            "responseTime": 285.3560086947279,
            "responded": true,
            "reactionTimeMs": 652.910888671875,
            "vibrationDeviceName": "None",
            "vibrationDistanceMeters": 3.25,
            "loomStartMeters": 3.25,
            "loomEndMeters": 0.15000000596046449
        },
        {
            "definition": {
                "trialId": "B1_T45",
                "blockIndex": 0,
                "trialIndex": 44,
                "isPractice": false,
                "modality": 2,
                "speed": 1,
                "width": 1,
                "vibrationStage": 0
            },
            "trialStartTime": 287.98041429280046,
            "loomOnsetTime": 287.98041429280046,
            "d7OnsetTime": 288.9523397888322,
            "crossingD7Time": 288.9523397888322,
            "crossingD6Time": 289.61930019132656,
            "crossingD5Time": 290.285643792517,
            "crossingD4Time": 290.95203878968256,
            "crossingD3Time": 291.6187260912698,
            "crossingD2Time": 292.2854200892857,
            "crossingD1Time": 292.95157108843536,
            "vibrationFiredTime": 288.9523397888322,
            "responseTime": 288.9941995890023,
            "responded": true,
            "reactionTimeMs": 41.859798431396487,
            "vibrationDeviceName": "None",
            "vibrationDistanceMeters": 3.25,
            "loomStartMeters": 3.25,
            "loomEndMeters": 0.15000000596046449
        },
        {
            "definition": {
                "trialId": "B1_T46",
                "blockIndex": 0,
                "trialIndex": 45,
                "isPractice": false,
                "modality": 1,
                "speed": 0,
                "width": 1,
                "vibrationStage": 5
            },
            "trialStartTime": 294.2295656887755,
            "loomOnsetTime": NaN,
            "d7OnsetTime": NaN,
            "crossingD7Time": NaN,
            "crossingD6Time": NaN,
            "crossingD5Time": NaN,
            "crossingD4Time": NaN,
            "crossingD3Time": NaN,
            "crossingD2Time": NaN,
            "crossingD1Time": NaN,
            "vibrationFiredTime": 295.85392898951246,
            "responseTime": 296.298345989229,
            "responded": true,
            "reactionTimeMs": 444.4169921875,
            "vibrationDeviceName": "None",
            "vibrationDistanceMeters": 0.6666667461395264,
            "loomStartMeters": 3.25,
            "loomEndMeters": 0.15000000596046449
        },
        {
            "definition": {
                "trialId": "B1_T47",
                "blockIndex": 0,
                "trialIndex": 46,
                "isPractice": false,
                "modality": 1,
                "speed": 1,
                "width": 1,
                "vibrationStage": 3
            },
            "trialStartTime": 297.5620202947846,
            "loomOnsetTime": NaN,
            "d7OnsetTime": NaN,
            "crossingD7Time": NaN,
            "crossingD6Time": NaN,
            "crossingD5Time": NaN,
            "crossingD4Time": NaN,
            "crossingD3Time": NaN,
            "crossingD2Time": NaN,
            "crossingD1Time": NaN,
            "vibrationFiredTime": 300.53386039540819,
            "responseTime": NaN,
            "responded": false,
            "reactionTimeMs": NaN,
            "vibrationDeviceName": "None",
            "vibrationDistanceMeters": 1.7000000476837159,
            "loomStartMeters": 3.25,
            "loomEndMeters": 0.15000000596046449
        },
        {
            "definition": {
                "trialId": "B1_T48",
                "blockIndex": 0,
                "trialIndex": 47,
                "isPractice": false,
                "modality": 0,
                "speed": 0,
                "width": 1,
                "vibrationStage": -1
            },
            "trialStartTime": 305.1299617913832,
            "loomOnsetTime": 305.1299617913832,
            "d7OnsetTime": 305.5049191893424,
            "crossingD7Time": 305.5049191893424,
            "crossingD6Time": 305.7413147888322,
            "crossingD5Time": 305.9911173894558,
            "crossingD4Time": 306.2548224914966,
            "crossingD3Time": 306.4911613945578,
            "crossingD2Time": 306.7549638888889,
            "crossingD1Time": 307.0046275935374,
            "vibrationFiredTime": NaN,
            "responseTime": NaN,
            "responded": false,
            "reactionTimeMs": NaN,
            "vibrationDeviceName": "None",
            "vibrationDistanceMeters": NaN,
            "loomStartMeters": 3.25,
            "loomEndMeters": 0.15000000596046449
        },
        {
            "definition": {
                "trialId": "B1_T49",
                "blockIndex": 0,
                "trialIndex": 48,
                "isPractice": false,
                "modality": 2,
                "speed": 1,
                "width": 1,
                "vibrationStage": 3
            },
            "trialStartTime": 308.4353356930272,
            "loomOnsetTime": 308.4353356930272,
            "d7OnsetTime": 309.4070949900794,
            "crossingD7Time": 309.4070949900794,
            "crossingD6Time": 310.073334289966,
            "crossingD5Time": 310.7400470946712,
            "crossingD4Time": 311.40691819019277,
            "crossingD3Time": 312.0735005952381,
            "crossingD2Time": 312.73994079506805,
            "crossingD1Time": 313.40618689058955,
            "vibrationFiredTime": 311.40691819019277,
            "responseTime": 312.17047979024945,
            "responded": true,
            "reactionTimeMs": 763.5615844726563,
            "vibrationDeviceName": "None",
            "vibrationDistanceMeters": 1.7000000476837159,
            "loomStartMeters": 3.25,
            "loomEndMeters": 0.15000000596046449
        },
        {
            "definition": {
                "trialId": "B1_T50",
                "blockIndex": 0,
                "trialIndex": 49,
                "isPractice": false,
                "modality": 1,
                "speed": 1,
                "width": 1,
                "vibrationStage": 2
            },
            "trialStartTime": 314.62921609268706,
            "loomOnsetTime": NaN,
            "d7OnsetTime": NaN,
            "crossingD7Time": NaN,
            "crossingD6Time": NaN,
            "crossingD5Time": NaN,
            "crossingD4Time": NaN,
            "crossingD3Time": NaN,
            "crossingD2Time": NaN,
            "crossingD1Time": NaN,
            "vibrationFiredTime": 316.9341384920635,
            "responseTime": 317.8091290887188,
            "responded": true,
            "reactionTimeMs": 874.9906005859375,
            "vibrationDeviceName": "None",
            "vibrationDistanceMeters": 2.2166666984558107,
            "loomStartMeters": 3.25,
            "loomEndMeters": 0.15000000596046449
        },
        {
            "definition": {
                "trialId": "B1_T51",
                "blockIndex": 0,
                "trialIndex": 50,
                "isPractice": false,
                "modality": 0,
                "speed": 1,
                "width": 1,
                "vibrationStage": -1
            },
            "trialStartTime": 320.90541079223358,
            "loomOnsetTime": 320.90541079223358,
            "d7OnsetTime": 321.8774518920068,
            "crossingD7Time": 321.8774518920068,
            "crossingD6Time": 322.53042149234695,
            "crossingD5Time": 323.3636462939342,
            "crossingD4Time": 323.8769059948979,
            "crossingD3Time": 324.54364179421767,
            "crossingD2Time": 325.20978178854877,
            "crossingD1Time": 325.87653099489798,
            "vibrationFiredTime": NaN,
            "responseTime": NaN,
            "responded": false,
            "reactionTimeMs": NaN,
            "vibrationDeviceName": "None",
            "vibrationDistanceMeters": NaN,
            "loomStartMeters": 3.25,
            "loomEndMeters": 0.15000000596046449
        },
        {
            "definition": {
                "trialId": "B1_T52",
                "blockIndex": 0,
                "trialIndex": 51,
                "isPractice": false,
                "modality": 1,
                "speed": 1,
                "width": 1,
                "vibrationStage": 6
            },
            "trialStartTime": 327.44580569019276,
            "loomOnsetTime": NaN,
            "d7OnsetTime": NaN,
            "crossingD7Time": NaN,
            "crossingD6Time": NaN,
            "crossingD5Time": NaN,
            "crossingD4Time": NaN,
            "crossingD3Time": NaN,
            "crossingD2Time": NaN,
            "crossingD1Time": NaN,
            "vibrationFiredTime": 332.41705308956917,
            "responseTime": 333.06967789115648,
            "responded": true,
            "reactionTimeMs": 652.6248168945313,
            "vibrationDeviceName": "None",
            "vibrationDistanceMeters": 0.15000000596046449,
            "loomStartMeters": 3.25,
            "loomEndMeters": 0.15000000596046449
        },
        {
            "definition": {
                "trialId": "B1_T53",
                "blockIndex": 0,
                "trialIndex": 52,
                "isPractice": false,
                "modality": 1,
                "speed": 1,
                "width": 1,
                "vibrationStage": 1
            },
            "trialStartTime": 334.48609279336735,
            "loomOnsetTime": NaN,
            "d7OnsetTime": NaN,
            "crossingD7Time": NaN,
            "crossingD6Time": NaN,
            "crossingD5Time": NaN,
            "crossingD4Time": NaN,
            "crossingD3Time": NaN,
            "crossingD2Time": NaN,
            "crossingD1Time": NaN,
            "vibrationFiredTime": 336.12472458900227,
            "responseTime": 336.7634347930839,
            "responded": true,
            "reactionTimeMs": 638.710205078125,
            "vibrationDeviceName": "None",
            "vibrationDistanceMeters": 2.7333333492279054,
            "loomStartMeters": 3.25,
            "loomEndMeters": 0.15000000596046449
        },
        {
            "definition": {
                "trialId": "B1_T54",
                "blockIndex": 0,
                "trialIndex": 53,
                "isPractice": false,
                "modality": 2,
                "speed": 1,
                "width": 1,
                "vibrationStage": 0
            },
            "trialStartTime": 341.24891999007936,
            "loomOnsetTime": 341.24891999007936,
            "d7OnsetTime": 342.2208800949546,
            "crossingD7Time": 342.2208800949546,
            "crossingD6Time": 342.8739287910998,
            "crossingD5Time": 343.5406723922902,
            "crossingD4Time": 344.20712728883219,
            "crossingD3Time": 344.87399179421768,
            "crossingD2Time": 345.54095889314057,
            "crossingD1Time": 346.20730989229027,
            "vibrationFiredTime": 342.2208800949546,
            "responseTime": 342.84594699546484,
            "responded": true,
            "reactionTimeMs": 625.06689453125,
            "vibrationDeviceName": "None",
            "vibrationDistanceMeters": 3.25,
            "loomStartMeters": 3.25,
            "loomEndMeters": 0.15000000596046449
        },
        {
            "definition": {
                "trialId": "B1_T55",
                "blockIndex": 0,
                "trialIndex": 54,
                "isPractice": false,
                "modality": 2,
                "speed": 1,
                "width": 1,
                "vibrationStage": 5
            },
            "trialStartTime": 347.6376901927438,
            "loomOnsetTime": 347.6376901927438,
            "d7OnsetTime": 348.6099490929705,
            "crossingD7Time": 348.6099490929705,
            "crossingD6Time": 349.2762902919501,
            "crossingD5Time": 349.9291080924036,
            "crossingD4Time": 350.6093003897392,
            "crossingD3Time": 351.27593209325399,
            "crossingD2Time": 351.9423827947846,
            "crossingD1Time": 352.6087772888322,
            "vibrationFiredTime": 351.9423827947846,
            "responseTime": 352.4978648951247,
            "responded": true,
            "reactionTimeMs": 555.4821166992188,
            "vibrationDeviceName": "None",
            "vibrationDistanceMeters": 0.6666667461395264,
            "loomStartMeters": 3.25,
            "loomEndMeters": 0.15000000596046449
        },
        {
            "definition": {
                "trialId": "B1_T56",
                "blockIndex": 0,
                "trialIndex": 55,
                "isPractice": false,
                "modality": 2,
                "speed": 0,
                "width": 1,
                "vibrationStage": 6
            },
            "trialStartTime": 353.84449459325397,
            "loomOnsetTime": 353.84449459325397,
            "d7OnsetTime": 354.2191328939909,
            "crossingD7Time": 354.2191328939909,
            "crossingD6Time": 354.4554960884354,
            "crossingD5Time": 354.7187119897959,
            "crossingD4Time": 354.9688280895692,
            "crossingD3Time": 355.2190827947846,
            "crossingD2Time": 355.4691006944444,
            "crossingD1Time": 355.71882749433105,
            "vibrationFiredTime": 355.71882749433105,
            "responseTime": 356.1075874929138,
            "responded": true,
            "reactionTimeMs": 388.760009765625,
            "vibrationDeviceName": "None",
            "vibrationDistanceMeters": 0.15000000596046449,
            "loomStartMeters": 3.25,
            "loomEndMeters": 0.15000000596046449
        },
        {
            "definition": {
                "trialId": "B1_T57",
                "blockIndex": 0,
                "trialIndex": 56,
                "isPractice": false,
                "modality": 0,
                "speed": 1,
                "width": 1,
                "vibrationStage": -1
            },
            "trialStartTime": 357.3713590915533,
            "loomOnsetTime": 357.3713590915533,
            "d7OnsetTime": 358.3435840915533,
            "crossingD7Time": 358.3435840915533,
            "crossingD6Time": 359.01007998866216,
            "crossingD5Time": 359.67708299319726,
            "crossingD4Time": 360.34327849348076,
            "crossingD3Time": 361.00948199404765,
            "crossingD2Time": 361.67681429280045,
            "crossingD1Time": 362.3430250921202,
            "vibrationFiredTime": NaN,
            "responseTime": NaN,
            "responded": false,
            "reactionTimeMs": NaN,
            "vibrationDeviceName": "None",
            "vibrationDistanceMeters": NaN,
            "loomStartMeters": 3.25,
            "loomEndMeters": 0.15000000596046449
        },
        {
            "definition": {
                "trialId": "B1_T58",
                "blockIndex": 0,
                "trialIndex": 57,
                "isPractice": false,
                "modality": 1,
                "speed": 0,
                "width": 1,
                "vibrationStage": 2
            },
            "trialStartTime": 363.66238629535146,
            "loomOnsetTime": NaN,
            "d7OnsetTime": NaN,
            "crossingD7Time": NaN,
            "crossingD6Time": NaN,
            "crossingD5Time": NaN,
            "crossingD4Time": NaN,
            "crossingD3Time": NaN,
            "crossingD2Time": NaN,
            "crossingD1Time": NaN,
            "vibrationFiredTime": 364.53683518990927,
            "responseTime": 365.1483319940476,
            "responded": true,
            "reactionTimeMs": 611.496826171875,
            "vibrationDeviceName": "None",
            "vibrationDistanceMeters": 2.2166666984558107,
            "loomStartMeters": 3.25,
            "loomEndMeters": 0.15000000596046449
        },
        {
            "definition": {
                "trialId": "B1_T59",
                "blockIndex": 0,
                "trialIndex": 58,
                "isPractice": false,
                "modality": 2,
                "speed": 1,
                "width": 1,
                "vibrationStage": 1
            },
            "trialStartTime": 367.32773798894557,
            "loomOnsetTime": 367.32773798894557,
            "d7OnsetTime": 368.29989809382086,
            "crossingD7Time": 368.29989809382086,
            "crossingD6Time": 368.9660599914966,
            "crossingD5Time": 369.61923779053287,
            "crossingD4Time": 370.29930389030615,
            "crossingD3Time": 370.9659748937075,
            "crossingD2Time": 371.63247509212018,
            "crossingD1Time": 372.29915289115646,
            "vibrationFiredTime": 368.9660599914966,
            "responseTime": 369.7025240929705,
            "responded": true,
            "reactionTimeMs": 736.464111328125,
            "vibrationDeviceName": "None",
            "vibrationDistanceMeters": 2.7333333492279054,
            "loomStartMeters": 3.25,
            "loomEndMeters": 0.15000000596046449
        },
        {
            "definition": {
                "trialId": "B1_T60",
                "blockIndex": 0,
                "trialIndex": 59,
                "isPractice": false,
                "modality": 1,
                "speed": 1,
                "width": 1,
                "vibrationStage": 0
            },
            "trialStartTime": 373.64617988945578,
            "loomOnsetTime": NaN,
            "d7OnsetTime": NaN,
            "crossingD7Time": NaN,
            "crossingD6Time": NaN,
            "crossingD5Time": NaN,
            "crossingD4Time": NaN,
            "crossingD3Time": NaN,
            "crossingD2Time": NaN,
            "crossingD1Time": NaN,
            "vibrationFiredTime": 374.61797939342405,
            "responseTime": 375.256933489229,
            "responded": true,
            "reactionTimeMs": 638.9541015625,
            "vibrationDeviceName": "None",
            "vibrationDistanceMeters": 3.25,
            "loomStartMeters": 3.25,
            "loomEndMeters": 0.15000000596046449
        },
        {
            "definition": {
                "trialId": "B1_T61",
                "blockIndex": 0,
                "trialIndex": 60,
                "isPractice": false,
                "modality": 1,
                "speed": 0,
                "width": 1,
                "vibrationStage": 1
            },
            "trialStartTime": 380.0895980938208,
            "loomOnsetTime": NaN,
            "d7OnsetTime": NaN,
            "crossingD7Time": NaN,
            "crossingD6Time": NaN,
            "crossingD5Time": NaN,
            "crossingD4Time": NaN,
            "crossingD3Time": NaN,
            "crossingD2Time": NaN,
            "crossingD1Time": NaN,
            "vibrationFiredTime": 380.71398669217685,
            "responseTime": 381.42285659013608,
            "responded": true,
            "reactionTimeMs": 708.869873046875,
            "vibrationDeviceName": "None",
            "vibrationDistanceMeters": 2.7333333492279054,
            "loomStartMeters": 3.25,
            "loomEndMeters": 0.15000000596046449
        },
        {
            "definition": {
                "trialId": "B1_T62",
                "blockIndex": 0,
                "trialIndex": 61,
                "isPractice": false,
                "modality": 2,
                "speed": 0,
                "width": 1,
                "vibrationStage": 4
            },
            "trialStartTime": 383.2001963931406,
            "loomOnsetTime": 383.2001963931406,
            "d7OnsetTime": 383.57523009495465,
            "crossingD7Time": 383.57523009495465,
            "crossingD6Time": 383.82510649092969,
            "crossingD5Time": 384.0751457908163,
            "crossingD4Time": 384.3250125921202,
            "crossingD3Time": 384.5751430909864,
            "crossingD2Time": 384.82492239229028,
            "crossingD1Time": 385.0748915887188,
            "vibrationFiredTime": 384.5751430909864,
            "responseTime": 385.2136765943877,
            "responded": true,
            "reactionTimeMs": 638.5335083007813,
            "vibrationDeviceName": "None",
            "vibrationDistanceMeters": 1.1833332777023316,
            "loomStartMeters": 3.25,
            "loomEndMeters": 0.15000000596046449
        },
        {
            "definition": {
                "trialId": "B1_T63",
                "blockIndex": 0,
                "trialIndex": 62,
                "isPractice": false,
                "modality": 2,
                "speed": 1,
                "width": 1,
                "vibrationStage": 0
            },
            "trialStartTime": 386.8106969954648,
            "loomOnsetTime": 386.8106969954648,
            "d7OnsetTime": 387.7830665887188,
            "crossingD7Time": 387.7830665887188,
            "crossingD6Time": 388.449393792517,
            "crossingD5Time": 389.1156534934807,
            "crossingD4Time": 389.78237548894556,
            "crossingD3Time": 390.44888779053288,
            "crossingD2Time": 391.11529459325398,
            "crossingD1Time": 391.78175599489795,
            "vibrationFiredTime": 387.7830665887188,
            "responseTime": NaN,
            "responded": false,
            "reactionTimeMs": NaN,
            "vibrationDeviceName": "None",
            "vibrationDistanceMeters": 3.25,
            "loomStartMeters": 3.25,
            "loomEndMeters": 0.15000000596046449
        },
        {
            "definition": {
                "trialId": "B1_T64",
                "blockIndex": 0,
                "trialIndex": 63,
                "isPractice": false,
                "modality": 2,
                "speed": 0,
                "width": 1,
                "vibrationStage": 4
            },
            "trialStartTime": 394.04518339002267,
            "loomOnsetTime": 394.04518339002267,
            "d7OnsetTime": 394.42041239370748,
            "crossingD7Time": 394.42041239370748,
            "crossingD6Time": 394.65633268849207,
            "crossingD5Time": 394.90642939342406,
            "crossingD4Time": 395.17007219387758,
            "crossingD3Time": 395.4202182893991,
            "crossingD2Time": 395.6699980938208,
            "crossingD1Time": 395.9202216907596,
            "vibrationFiredTime": 395.4202182893991,
            "responseTime": 395.90621799178,
            "responded": true,
            "reactionTimeMs": 485.99969482421877,
            "vibrationDeviceName": "None",
            "vibrationDistanceMeters": 1.1833332777023316,
            "loomStartMeters": 3.25,
            "loomEndMeters": 0.15000000596046449
        },
        {
            "definition": {
                "trialId": "B1_T65",
                "blockIndex": 0,
                "trialIndex": 64,
                "isPractice": false,
                "modality": 1,
                "speed": 0,
                "width": 1,
                "vibrationStage": 6
            },
            "trialStartTime": 397.46156028911567,
            "loomOnsetTime": NaN,
            "d7OnsetTime": NaN,
            "crossingD7Time": NaN,
            "crossingD6Time": NaN,
            "crossingD5Time": NaN,
            "crossingD4Time": NaN,
            "crossingD3Time": NaN,
            "crossingD2Time": NaN,
            "crossingD1Time": NaN,
            "vibrationFiredTime": 399.3360867913832,
            "responseTime": 400.0859001913265,
            "responded": true,
            "reactionTimeMs": 749.8134155273438,
            "vibrationDeviceName": "None",
            "vibrationDistanceMeters": 0.15000000596046449,
            "loomStartMeters": 3.25,
            "loomEndMeters": 0.15000000596046449
        },
        {
            "definition": {
                "trialId": "B1_T66",
                "blockIndex": 0,
                "trialIndex": 65,
                "isPractice": false,
                "modality": 1,
                "speed": 1,
                "width": 1,
                "vibrationStage": 6
            },
            "trialStartTime": 401.3772711947279,
            "loomOnsetTime": NaN,
            "d7OnsetTime": NaN,
            "crossingD7Time": NaN,
            "crossingD6Time": NaN,
            "crossingD5Time": NaN,
            "crossingD4Time": NaN,
            "crossingD3Time": NaN,
            "crossingD2Time": NaN,
            "crossingD1Time": NaN,
            "vibrationFiredTime": 406.3485988945578,
            "responseTime": 407.0156630952381,
            "responded": true,
            "reactionTimeMs": 667.064208984375,
            "vibrationDeviceName": "None",
            "vibrationDistanceMeters": 0.15000000596046449,
            "loomStartMeters": 3.25,
            "loomEndMeters": 0.15000000596046449
        },
        {
            "definition": {
                "trialId": "B1_T67",
                "blockIndex": 0,
                "trialIndex": 66,
                "isPractice": false,
                "modality": 1,
                "speed": 1,
                "width": 1,
                "vibrationStage": 4
            },
            "trialStartTime": 408.4320165887188,
            "loomOnsetTime": NaN,
            "d7OnsetTime": NaN,
            "crossingD7Time": NaN,
            "crossingD6Time": NaN,
            "crossingD5Time": NaN,
            "crossingD4Time": NaN,
            "crossingD3Time": NaN,
            "crossingD2Time": NaN,
            "crossingD1Time": NaN,
            "vibrationFiredTime": 412.06984259495467,
            "responseTime": 412.66714659155328,
            "responded": true,
            "reactionTimeMs": 597.3040161132813,
            "vibrationDeviceName": "None",
            "vibrationDistanceMeters": 1.1833332777023316,
            "loomStartMeters": 3.25,
            "loomEndMeters": 0.15000000596046449
        },
        {
            "definition": {
                "trialId": "B1_T68",
                "blockIndex": 0,
                "trialIndex": 67,
                "isPractice": false,
                "modality": 2,
                "speed": 1,
                "width": 1,
                "vibrationStage": 6
            },
            "trialStartTime": 414.65261409438775,
            "loomOnsetTime": 414.65261409438775,
            "d7OnsetTime": 415.624794890873,
            "crossingD7Time": 415.624794890873,
            "crossingD6Time": 416.2776538903061,
            "crossingD5Time": 416.95790419501135,
            "crossingD4Time": 417.62455189200678,
            "crossingD3Time": 418.29124979450116,
            "crossingD2Time": 418.9573523951247,
            "crossingD1Time": 419.62410549178004,
            "vibrationFiredTime": 419.62410549178004,
            "responseTime": 420.0551779903628,
            "responded": true,
            "reactionTimeMs": 431.072509765625,
            "vibrationDeviceName": "None",
            "vibrationDistanceMeters": 0.15000000596046449,
            "loomStartMeters": 3.25,
            "loomEndMeters": 0.15000000596046449
        },
        {
            "definition": {
                "trialId": "B1_T69",
                "blockIndex": 0,
                "trialIndex": 68,
                "isPractice": false,
                "modality": 0,
                "speed": 1,
                "width": 1,
                "vibrationStage": -1
            },
            "trialStartTime": 421.6936492913832,
            "loomOnsetTime": 421.6936492913832,
            "d7OnsetTime": 422.6654415887188,
            "crossingD7Time": 422.6654415887188,
            "crossingD6Time": 423.31820069444446,
            "crossingD5Time": 423.99826549036279,
            "crossingD4Time": 424.66505909155326,
            "crossingD3Time": 425.33132249149658,
            "crossingD2Time": 425.99817548894557,
            "crossingD1Time": 426.6645038903061,
            "vibrationFiredTime": NaN,
            "responseTime": 424.15138689058957,
            "responded": true,
            "reactionTimeMs": NaN,
            "vibrationDeviceName": "None",
            "vibrationDistanceMeters": NaN,
            "loomStartMeters": 3.25,
            "loomEndMeters": 0.15000000596046449
        },
        {
            "definition": {
                "trialId": "B1_T70",
                "blockIndex": 0,
                "trialIndex": 69,
                "isPractice": false,
                "modality": 2,
                "speed": 0,
                "width": 1,
                "vibrationStage": 6
            },
            "trialStartTime": 428.1647962939342,
            "loomOnsetTime": 428.1647962939342,
            "d7OnsetTime": 428.54007619047617,
            "crossingD7Time": 428.54007619047617,
            "crossingD6Time": 428.78979518849208,
            "crossingD5Time": 429.039469890873,
            "crossingD4Time": 429.2895755952381,
            "crossingD3Time": 429.5259156887755,
            "crossingD2Time": 429.78955979308388,
            "crossingD1Time": 430.03929459325396,
            "vibrationFiredTime": 430.03929459325396,
            "responseTime": 430.4839152919501,
            "responded": true,
            "reactionTimeMs": 444.6206970214844,
            "vibrationDeviceName": "None",
            "vibrationDistanceMeters": 0.15000000596046449,
            "loomStartMeters": 3.25,
            "loomEndMeters": 0.15000000596046449
        },
        {
            "definition": {
                "trialId": "B1_T71",
                "blockIndex": 0,
                "trialIndex": 70,
                "isPractice": false,
                "modality": 2,
                "speed": 1,
                "width": 1,
                "vibrationStage": 2
            },
            "trialStartTime": 431.71971039540815,
            "loomOnsetTime": 431.71971039540815,
            "d7OnsetTime": 432.69141869331067,
            "crossingD7Time": 432.69141869331067,
            "crossingD6Time": 433.3579946924603,
            "crossingD5Time": 434.02435709325398,
            "crossingD4Time": 434.6911240929705,
            "crossingD3Time": 435.35736298894558,
            "crossingD2Time": 436.02392289540815,
            "crossingD1Time": 436.69052059240365,
            "vibrationFiredTime": 434.02435709325398,
            "responseTime": 434.6911240929705,
            "responded": true,
            "reactionTimeMs": 666.7670288085938,
            "vibrationDeviceName": "None",
            "vibrationDistanceMeters": 2.2166666984558107,
            "loomStartMeters": 3.25,
            "loomEndMeters": 0.15000000596046449
        },
        {
            "definition": {
                "trialId": "B1_T72",
                "blockIndex": 0,
                "trialIndex": 71,
                "isPractice": false,
                "modality": 2,
                "speed": 0,
                "width": 1,
                "vibrationStage": 4
            },
            "trialStartTime": 437.94089518849207,
            "loomOnsetTime": 437.94089518849207,
            "d7OnsetTime": 438.31559439484126,
            "crossingD7Time": 438.31559439484126,
            "crossingD6Time": 438.5519854946145,
            "crossingD5Time": 438.8156773951247,
            "crossingD4Time": 439.06553518990929,
            "crossingD3Time": 439.3154593891723,
            "crossingD2Time": 439.5656180909864,
            "crossingD1Time": 439.815391893424,
            "vibrationFiredTime": 439.3154593891723,
            "responseTime": 439.815391893424,
            "responded": true,
            "reactionTimeMs": 499.9324951171875,
            "vibrationDeviceName": "None",
            "vibrationDistanceMeters": 1.1833332777023316,
            "loomStartMeters": 3.25,
            "loomEndMeters": 0.15000000596046449
        },
        {
            "definition": {
                "trialId": "B1_T73",
                "blockIndex": 0,
                "trialIndex": 72,
                "isPractice": false,
                "modality": 2,
                "speed": 0,
                "width": 1,
                "vibrationStage": 5
            },
            "trialStartTime": 441.32879858985258,
            "loomOnsetTime": 441.32879858985258,
            "d7OnsetTime": 441.70391689342405,
            "crossingD7Time": 441.70391689342405,
            "crossingD6Time": 441.9536745890023,
            "crossingD5Time": 442.20379409013607,
            "crossingD4Time": 442.45391869331066,
            "crossingD3Time": 442.6903897888322,
            "crossingD2Time": 442.95382349064626,
            "crossingD1Time": 443.19027199546487,
            "vibrationFiredTime": 442.95382349064626,
            "responseTime": 443.3845816893424,
            "responded": true,
            "reactionTimeMs": 430.7582092285156,
            "vibrationDeviceName": "None",
            "vibrationDistanceMeters": 0.6666667461395264,
            "loomStartMeters": 3.25,
            "loomEndMeters": 0.15000000596046449
        },
        {
            "definition": {
                "trialId": "B1_T74",
                "blockIndex": 0,
                "trialIndex": 73,
                "isPractice": false,
                "modality": 1,
                "speed": 0,
                "width": 1,
                "vibrationStage": 5
            },
            "trialStartTime": 444.82864439484128,
            "loomOnsetTime": NaN,
            "d7OnsetTime": NaN,
            "crossingD7Time": NaN,
            "crossingD6Time": NaN,
            "crossingD5Time": NaN,
            "crossingD4Time": NaN,
            "crossingD3Time": NaN,
            "crossingD2Time": NaN,
            "crossingD1Time": NaN,
            "vibrationFiredTime": 446.45351759495465,
            "responseTime": 447.3697411918934,
            "responded": true,
            "reactionTimeMs": 916.2235717773438,
            "vibrationDeviceName": "None",
            "vibrationDistanceMeters": 0.6666667461395264,
            "loomStartMeters": 3.25,
            "loomEndMeters": 0.15000000596046449
        },
        {
            "definition": {
                "trialId": "B1_T75",
                "blockIndex": 0,
                "trialIndex": 74,
                "isPractice": false,
                "modality": 2,
                "speed": 0,
                "width": 1,
                "vibrationStage": 2
            },
            "trialStartTime": 448.9527101899093,
            "loomOnsetTime": 448.9527101899093,
            "d7OnsetTime": 449.32783809523808,
            "crossingD7Time": 449.32783809523808,
            "crossingD6Time": 449.5638599914966,
            "crossingD5Time": 449.8139083900227,
            "crossingD4Time": 450.06379849064628,
            "crossingD3Time": 450.3276397888322,
            "crossingD2Time": 450.56383039257368,
            "crossingD1Time": 450.82749939058955,
            "vibrationFiredTime": 449.8139083900227,
            "responseTime": 450.59143309240365,
            "responded": true,
            "reactionTimeMs": 777.5247192382813,
            "vibrationDeviceName": "None",
            "vibrationDistanceMeters": 2.2166666984558107,
            "loomStartMeters": 3.25,
            "loomEndMeters": 0.15000000596046449
        },
        {
            "definition": {
                "trialId": "B1_T76",
                "blockIndex": 0,
                "trialIndex": 75,
                "isPractice": false,
                "modality": 1,
                "speed": 1,
                "width": 1,
                "vibrationStage": 2
            },
            "trialStartTime": 452.27169259495465,
            "loomOnsetTime": NaN,
            "d7OnsetTime": NaN,
            "crossingD7Time": NaN,
            "crossingD6Time": NaN,
            "crossingD5Time": NaN,
            "crossingD4Time": NaN,
            "crossingD3Time": NaN,
            "crossingD2Time": NaN,
            "crossingD1Time": NaN,
            "vibrationFiredTime": 454.7152725907029,
            "responseTime": 455.4204849914966,
            "responded": true,
            "reactionTimeMs": 705.21240234375,
            "vibrationDeviceName": "None",
            "vibrationDistanceMeters": 2.2166666984558107,
            "loomStartMeters": 3.25,
            "loomEndMeters": 0.15000000596046449
        },
        {
            "definition": {
                "trialId": "B1_T77",
                "blockIndex": 0,
                "trialIndex": 76,
                "isPractice": false,
                "modality": 2,
                "speed": 1,
                "width": 1,
                "vibrationStage": 2
            },
            "trialStartTime": 458.8110715915533,
            "loomOnsetTime": 458.8110715915533,
            "d7OnsetTime": 459.7835988945578,
            "crossingD7Time": 459.7835988945578,
            "crossingD6Time": 460.45044399092969,
            "crossingD5Time": 461.11688189484126,
            "crossingD4Time": 461.7832488945578,
            "crossingD3Time": 462.449894090136,
            "crossingD2Time": 463.11621629109978,
            "crossingD1Time": 463.7833807893991,
            "vibrationFiredTime": 461.11688189484126,
            "responseTime": 461.6722433886054,
            "responded": true,
            "reactionTimeMs": 555.3615112304688,
            "vibrationDeviceName": "None",
            "vibrationDistanceMeters": 2.2166666984558107,
            "loomStartMeters": 3.25,
            "loomEndMeters": 0.15000000596046449
        },
        {
            "definition": {
                "trialId": "B1_T78",
                "blockIndex": 0,
                "trialIndex": 77,
                "isPractice": false,
                "modality": 1,
                "speed": 0,
                "width": 1,
                "vibrationStage": 4
            },
            "trialStartTime": 465.53281589427435,
            "loomOnsetTime": NaN,
            "d7OnsetTime": NaN,
            "crossingD7Time": NaN,
            "crossingD6Time": NaN,
            "crossingD5Time": NaN,
            "crossingD4Time": NaN,
            "crossingD3Time": NaN,
            "crossingD2Time": NaN,
            "crossingD1Time": NaN,
            "vibrationFiredTime": 466.9083652919501,
            "responseTime": 467.4773194940476,
            "responded": true,
            "reactionTimeMs": 568.9542236328125,
            "vibrationDeviceName": "None",
            "vibrationDistanceMeters": 1.1833332777023316,
            "loomStartMeters": 3.25,
            "loomEndMeters": 0.15000000596046449
        },
        {
            "definition": {
                "trialId": "B1_T79",
                "blockIndex": 0,
                "trialIndex": 78,
                "isPractice": false,
                "modality": 1,
                "speed": 1,
                "width": 1,
                "vibrationStage": 4
            },
            "trialStartTime": 469.2275239937642,
            "loomOnsetTime": NaN,
            "d7OnsetTime": NaN,
            "crossingD7Time": NaN,
            "crossingD6Time": NaN,
            "crossingD5Time": NaN,
            "crossingD4Time": NaN,
            "crossingD3Time": NaN,
            "crossingD2Time": NaN,
            "crossingD1Time": NaN,
            "vibrationFiredTime": 472.8656439909297,
            "responseTime": 473.5177115929705,
            "responded": true,
            "reactionTimeMs": 652.067626953125,
            "vibrationDeviceName": "None",
            "vibrationDistanceMeters": 1.1833332777023316,
            "loomStartMeters": 3.25,
            "loomEndMeters": 0.15000000596046449
        },
        {
            "definition": {
                "trialId": "B1_T80",
                "blockIndex": 0,
                "trialIndex": 79,
                "isPractice": false,
                "modality": 1,
                "speed": 0,
                "width": 1,
                "vibrationStage": 5
            },
            "trialStartTime": 475.4753397888322,
            "loomOnsetTime": NaN,
            "d7OnsetTime": NaN,
            "crossingD7Time": NaN,
            "crossingD6Time": NaN,
            "crossingD5Time": NaN,
            "crossingD4Time": NaN,
            "crossingD3Time": NaN,
            "crossingD2Time": NaN,
            "crossingD1Time": NaN,
            "vibrationFiredTime": 477.10030779478457,
            "responseTime": 477.89224729308389,
            "responded": true,
            "reactionTimeMs": 791.9395141601563,
            "vibrationDeviceName": "None",
            "vibrationDistanceMeters": 0.6666667461395264,
            "loomStartMeters": 3.25,
            "loomEndMeters": 0.15000000596046449
        },
        {
            "definition": {
                "trialId": "B1_T81",
                "blockIndex": 0,
                "trialIndex": 80,
                "isPractice": false,
                "modality": 1,
                "speed": 0,
                "width": 1,
                "vibrationStage": 2
            },
            "trialStartTime": 479.60001429280045,
            "loomOnsetTime": NaN,
            "d7OnsetTime": NaN,
            "crossingD7Time": NaN,
            "crossingD6Time": NaN,
            "crossingD5Time": NaN,
            "crossingD4Time": NaN,
            "crossingD3Time": NaN,
            "crossingD2Time": NaN,
            "crossingD1Time": NaN,
            "vibrationFiredTime": 480.4746712939342,
            "responseTime": 481.3916529903628,
            "responded": true,
            "reactionTimeMs": 916.981689453125,
            "vibrationDeviceName": "None",
            "vibrationDistanceMeters": 2.2166666984558107,
            "loomStartMeters": 3.25,
            "loomEndMeters": 0.15000000596046449
        },
        {
            "definition": {
                "trialId": "B1_T82",
                "blockIndex": 0,
                "trialIndex": 81,
                "isPractice": false,
                "modality": 0,
                "speed": 0,
                "width": 1,
                "vibrationStage": -1
            },
            "trialStartTime": 482.7939522888322,
            "loomOnsetTime": 482.7939522888322,
            "d7OnsetTime": 483.1687357922335,
            "crossingD7Time": 483.1687357922335,
            "crossingD6Time": 483.40553129251699,
            "crossingD5Time": 483.66889759070297,
            "crossingD4Time": 483.9188191893424,
            "crossingD3Time": 484.1688356930272,
            "crossingD2Time": 484.41876028911567,
            "crossingD1Time": 484.6685762896825,
            "vibrationFiredTime": NaN,
            "responseTime": NaN,
            "responded": false,
            "reactionTimeMs": NaN,
            "vibrationDeviceName": "None",
            "vibrationDistanceMeters": NaN,
            "loomStartMeters": 3.25,
            "loomEndMeters": 0.15000000596046449
        },
        {
            "definition": {
                "trialId": "B1_T83",
                "blockIndex": 0,
                "trialIndex": 82,
                "isPractice": false,
                "modality": 2,
                "speed": 0,
                "width": 1,
                "vibrationStage": 2
            },
            "trialStartTime": 485.98753209325396,
            "loomOnsetTime": 485.98753209325396,
            "d7OnsetTime": 486.36257919501135,
            "crossingD7Time": 486.36257919501135,
            "crossingD6Time": 486.61250979308388,
            "crossingD5Time": 486.86246149376417,
            "crossingD4Time": 487.11289359410428,
            "crossingD3Time": 487.36229109268705,
            "crossingD2Time": 487.61245899234696,
            "crossingD1Time": 487.86209238945578,
            "vibrationFiredTime": 486.86246149376417,
            "responseTime": 487.41845179280047,
            "responded": true,
            "reactionTimeMs": 555.9902954101563,
            "vibrationDeviceName": "None",
            "vibrationDistanceMeters": 2.2166666984558107,
            "loomStartMeters": 3.25,
            "loomEndMeters": 0.15000000596046449
        },
        {
            "definition": {
                "trialId": "B1_T84",
                "blockIndex": 0,
                "trialIndex": 83,
                "isPractice": false,
                "modality": 1,
                "speed": 0,
                "width": 1,
                "vibrationStage": 2
            },
            "trialStartTime": 489.0982400935374,
            "loomOnsetTime": NaN,
            "d7OnsetTime": NaN,
            "crossingD7Time": NaN,
            "crossingD6Time": NaN,
            "crossingD5Time": NaN,
            "crossingD4Time": NaN,
            "crossingD3Time": NaN,
            "crossingD2Time": NaN,
            "crossingD1Time": NaN,
            "vibrationFiredTime": 489.973092694161,
            "responseTime": 490.82042638888886,
            "responded": true,
            "reactionTimeMs": 847.3336791992188,
            "vibrationDeviceName": "None",
            "vibrationDistanceMeters": 2.2166666984558107,
            "loomStartMeters": 3.25,
            "loomEndMeters": 0.15000000596046449
        },
        {
            "definition": {
                "trialId": "B1_T85",
                "blockIndex": 0,
                "trialIndex": 84,
                "isPractice": false,
                "modality": 1,
                "speed": 1,
                "width": 1,
                "vibrationStage": 0
            },
            "trialStartTime": 492.4869663903061,
            "loomOnsetTime": NaN,
            "d7OnsetTime": NaN,
            "crossingD7Time": NaN,
            "crossingD6Time": NaN,
            "crossingD5Time": NaN,
            "crossingD4Time": NaN,
            "crossingD3Time": NaN,
            "crossingD2Time": NaN,
            "crossingD1Time": NaN,
            "vibrationFiredTime": 493.4594115929705,
            "responseTime": 494.25005689484125,
            "responded": true,
            "reactionTimeMs": 790.6453247070313,
            "vibrationDeviceName": "None",
            "vibrationDistanceMeters": 3.25,
            "loomStartMeters": 3.25,
            "loomEndMeters": 0.15000000596046449
        },
        {
            "definition": {
                "trialId": "B1_T86",
                "blockIndex": 0,
                "trialIndex": 85,
                "isPractice": false,
                "modality": 0,
                "speed": 1,
                "width": 1,
                "vibrationStage": -1
            },
            "trialStartTime": 499.0414436933106,
            "loomOnsetTime": 499.0414436933106,
            "d7OnsetTime": 500.01371189058956,
            "crossingD7Time": 500.01371189058956,
            "crossingD6Time": 500.6667382936508,
            "crossingD5Time": 501.3329874929138,
            "crossingD4Time": 501.9998588931406,
            "crossingD3Time": 502.66676169217688,
            "crossingD2Time": 503.33363599064627,
            "crossingD1Time": 503.99975449263038,
            "vibrationFiredTime": NaN,
            "responseTime": NaN,
            "responded": false,
            "reactionTimeMs": NaN,
            "vibrationDeviceName": "None",
            "vibrationDistanceMeters": NaN,
            "loomStartMeters": 3.25,
            "loomEndMeters": 0.15000000596046449
        },
        {
            "definition": {
                "trialId": "B1_T87",
                "blockIndex": 0,
                "trialIndex": 86,
                "isPractice": false,
                "modality": 2,
                "speed": 0,
                "width": 1,
                "vibrationStage": 1
            },
            "trialStartTime": 505.6519875921202,
            "loomOnsetTime": 505.6519875921202,
            "d7OnsetTime": 506.02727049319727,
            "crossingD7Time": 506.02727049319727,
            "crossingD6Time": 506.26351439200677,
            "crossingD5Time": 506.52698319160995,
            "crossingD4Time": 506.7765131944444,
            "crossingD3Time": 507.02679309098638,
            "crossingD2Time": 507.2770296910431,
            "crossingD1Time": 507.5269740929705,
            "vibrationFiredTime": 506.26351439200677,
            "responseTime": NaN,
            "responded": false,
            "reactionTimeMs": NaN,
            "vibrationDeviceName": "None",
            "vibrationDistanceMeters": 2.7333333492279054,
            "loomStartMeters": 3.25,
            "loomEndMeters": 0.15000000596046449
        },
        {
            "definition": {
                "trialId": "B1_T88",
                "blockIndex": 0,
                "trialIndex": 87,
                "isPractice": false,
                "modality": 1,
                "speed": 1,
                "width": 1,
                "vibrationStage": 3
            },
            "trialStartTime": 509.1376247945011,
            "loomOnsetTime": NaN,
            "d7OnsetTime": NaN,
            "crossingD7Time": NaN,
            "crossingD6Time": NaN,
            "crossingD5Time": NaN,
            "crossingD4Time": NaN,
            "crossingD3Time": NaN,
            "crossingD2Time": NaN,
            "crossingD1Time": NaN,
            "vibrationFiredTime": 512.1086825892856,
