subject_id,session_number,block_number,trial_number,trial_type,correct_response,previous_speed,current_speed,speed_sequence,transition_status,trajectory_offset_cm,trial_trigger_code,response_trigger_code,trigger_timestamp,participant_response,reaction_time_ms,accuracy,trial_interrupted,timestamp
theo,1,1,1,near_hit,MISS,none,slow,start-slow,start,-35.25,0,0,0.0000,MISS,2631.80,1,0,2026-07-09T16:17:45.7355187+02:00
theo,1,1,2,clear_miss,MISS,slow,slow,slow-slow,repetition,67.71,0,0,0.0000,MISS,1349.92,1,0,2026-07-09T16:17:57.8887284+02:00
theo,1,1,3,near_miss,MISS,slow,slow,slow-slow,repetition,47.39,0,0,0.0000,MISS,1446.37,1,0,2026-07-09T16:18:11.1565383+02:00
theo,1,1,4,clear_hit,HIT,slow,slow,slow-slow,repetition,7.82,0,0,0.0000,HIT,905.88,1,0,2026-07-09T16:18:24.0344128+02:00
theo,1,1,5,near_hit,MISS,slow,fast,slow-fast,transition,-35.16,0,0,0.0000,MISS,668.10,1,0,2026-07-09T16:18:37.6228921+02:00
theo,1,1,6,clear_miss,MISS,fast,fast,fast-fast,repetition,-87.83,0,0,0.0000,MISS,599.39,1,0,2026-07-09T16:18:43.1919655+02:00
theo,1,1,7,near_hit,MISS,fast,fast,fast-fast,repetition,40.75,0,0,0.0000,HIT,571.63,0,0,2026-07-09T16:18:48.7330355+02:00
theo,1,1,8,near_miss,MISS,fast,slow,fast-slow,transition,52.99,0,0,0.0000,MISS,2129.95,1,0,2026-07-09T16:18:55.6668482+02:00
theo,1,1,9,near_hit,MISS,slow,slow,slow-slow,repetition,43.49,0,0,0.0000,MISS,919.10,1,0,2026-07-09T16:19:08.1680373+02:00
theo,1,1,10,clear_hit,HIT,slow,slow,slow-slow,repetition,-9.02,0,0,0.0000,HIT,1517.72,1,0,2026-07-09T16:19:22.2298508+02:00
theo,1,1,11,near_hit,MISS,slow,fast,slow-fast,transition,-34.06,0,0,0.0000,MISS,766.34,1,0,2026-07-09T16:19:35.3159886+02:00
theo,1,1,12,clear_miss,MISS,fast,fast,fast-fast,repetition,59.77,0,0,0.0000,MISS,807.74,1,0,2026-07-09T16:19:41.4412345+02:00
theo,1,1,13,near_hit,MISS,fast,fast,fast-fast,repetition,34.22,0,0,0.0000,MISS,807.53,1,0,2026-07-09T16:19:47.3723859+02:00
theo,1,1,14,clear_miss,MISS,fast,fast,fast-fast,repetition,62.18,0,0,0.0000,MISS,653.50,1,0,2026-07-09T16:19:52.6767164+02:00
theo,1,1,15,near_hit,MISS,fast,fast,fast-fast,repetition,33.40,0,0,0.0000,MISS,1099.58,1,0,2026-07-09T16:19:58.6636458+02:00
theo,1,1,16,near_hit,MISS,fast,slow,fast-slow,transition,-38.16,0,0,0.0000,HIT,1072.33,0,0,2026-07-09T16:20:04.6770650+02:00
theo,1,1,17,near_hit,MISS,slow,slow,slow-slow,repetition,40.27,0,0,0.0000,HIT,1350.53,0,0,2026-07-09T16:20:18.7796815+02:00
theo,1,1,18,near_miss,MISS,slow,slow,slow-slow,repetition,55.94,0,0,0.0000,MISS,2450.59,1,0,2026-07-09T16:20:33.0927016+02:00
theo,1,1,19,clear_miss,MISS,slow,slow,slow-slow,repetition,-89.58,0,0,0.0000,MISS,2144.33,1,0,2026-07-09T16:20:45.9009572+02:00
theo,1,1,20,near_miss,MISS,slow,slow,slow-slow,repetition,50.05,0,0,0.0000,HIT,752.79,0,0,2026-07-09T16:20:57.6645368+02:00
theo,1,1,21,near_hit,MISS,slow,fast,slow-fast,transition,33.94,0,0,0.0000,HIT,1962.70,0,0,2026-07-09T16:21:12.4635272+02:00
theo,1,1,22,near_miss,MISS,fast,fast,fast-fast,repetition,45.56,0,0,0.0000,HIT,793.48,0,0,2026-07-09T16:21:16.8769613+02:00
theo,1,1,23,clear_hit,HIT,fast,fast,fast-fast,repetition,-0.66,0,0,0.0000,HIT,1002.36,1,0,2026-07-09T16:21:22.4176423+02:00
theo,1,1,24,clear_miss,MISS,fast,fast,fast-fast,repetition,86.91,0,0,0.0000,MISS,626.20,1,0,2026-07-09T16:21:27.8888687+02:00
theo,1,1,25,near_hit,MISS,fast,slow,fast-slow,transition,42.28,0,0,0.0000,HIT,793.39,0,0,2026-07-09T16:21:33.8611631+02:00
theo,1,1,26,near_hit,MISS,slow,slow,slow-slow,repetition,42.47,0,0,0.0000,MISS,2324.89,1,0,2026-07-09T16:21:48.9955093+02:00
theo,1,1,27,clear_hit,HIT,slow,slow,slow-slow,repetition,-0.63,0,0,0.0000,HIT,1100.29,1,0,2026-07-09T16:22:01.5947511+02:00
theo,1,1,28,near_miss,MISS,slow,fast,slow-fast,transition,47.36,0,0,0.0000,MISS,1489.44,1,0,2026-07-09T16:22:15.9347825+02:00
theo,1,1,29,clear_hit,HIT,fast,fast,fast-fast,repetition,9.56,0,0,0.0000,HIT,974.79,1,0,2026-07-09T16:22:20.7372229+02:00
theo,1,1,30,near_miss,MISS,fast,fast,fast-fast,repetition,-56.07,0,0,0.0000,MISS,1420.02,1,0,2026-07-09T16:22:27.4356560+02:00
theo,1,1,31,near_miss,MISS,fast,slow,fast-slow,transition,-53.78,0,0,0.0000,HIT,1015.50,0,0,2026-07-09T16:22:32.7952245+02:00
theo,1,1,32,clear_miss,MISS,slow,slow,slow-slow,repetition,-70.55,0,0,0.0000,MISS,932.39,1,0,2026-07-09T16:22:45.7825598+02:00
theo,1,1,33,near_miss,MISS,slow,slow,slow-slow,repetition,56.23,0,0,0.0000,MISS,1559.44,1,0,2026-07-09T16:23:00.1645611+02:00
theo,1,1,34,near_hit,MISS,slow,slow,slow-slow,repetition,40.07,0,0,0.0000,HIT,2103.89,0,0,2026-07-09T16:23:14.0449601+02:00
theo,1,1,35,near_hit,MISS,slow,fast,slow-fast,transition,33.05,0,0,0.0000,MISS,1001.88,1,0,2026-07-09T16:23:26.0313863+02:00
theo,1,1,36,clear_miss,MISS,fast,fast,fast-fast,repetition,85.74,0,0,0.0000,MISS,765.87,1,0,2026-07-09T16:23:31.4064178+02:00
theo,1,1,37,near_miss,MISS,fast,fast,fast-fast,repetition,-48.89,0,0,0.0000,MISS,737.51,1,0,2026-07-09T16:23:36.7792988+02:00
theo,1,1,38,clear_hit,HIT,fast,fast,fast-fast,repetition,0.00,0,0,0.0000,HIT,654.46,1,0,2026-07-09T16:23:42.5310426+02:00
theo,1,1,39,near_miss,MISS,fast,slow,fast-slow,transition,-58.93,0,0,0.0000,MISS,1559.02,1,0,2026-07-09T16:23:48.8216284+02:00
theo,1,1,40,clear_hit,HIT,slow,slow,slow-slow,repetition,4.14,0,0,0.0000,HIT,1545.86,1,0,2026-07-09T16:24:01.8684235+02:00
theo,1,1,41,near_hit,MISS,slow,slow,slow-slow,repetition,34.14,0,0,0.0000,HIT,2658.52,0,0,2026-07-09T16:24:16.1937933+02:00
theo,1,1,42,near_hit,MISS,slow,fast,slow-fast,transition,38.65,0,0,0.0000,MISS,974.01,1,0,2026-07-09T16:24:27.6924741+02:00
theo,1,1,43,clear_hit,HIT,fast,fast,fast-fast,repetition,0.00,0,0,0.0000,HIT,932.52,1,0,2026-07-09T16:24:33.6516241+02:00
theo,1,1,44,clear_miss,MISS,fast,fast,fast-fast,repetition,67.75,0,0,0.0000,MISS,890.94,1,0,2026-07-09T16:24:39.2482670+02:00
theo,1,1,45,near_miss,MISS,fast,fast,fast-fast,repetition,55.75,0,0,0.0000,MISS,641.45,1,0,2026-07-09T16:24:44.7063558+02:00
theo,1,1,46,clear_hit,HIT,fast,fast,fast-fast,repetition,3.63,0,0,0.0000,HIT,1030.80,1,0,2026-07-09T16:24:50.7766856+02:00
theo,1,1,47,near_hit,MISS,fast,slow,fast-slow,transition,40.51,0,0,0.0000,MISS,1462.29,1,0,2026-07-09T16:24:57.4588009+02:00
theo,1,1,48,clear_miss,MISS,slow,slow,slow-slow,repetition,-86.43,0,0,0.0000,MISS,1350.57,1,0,2026-07-09T16:25:11.2836718+02:00
theo,1,1,49,near_miss,MISS,slow,slow,slow-slow,repetition,-48.93,0,0,0.0000,MISS,834.67,1,0,2026-07-09T16:25:24.3714199+02:00
theo,1,1,50,near_miss,MISS,slow,fast,slow-fast,transition,-46.49,0,0,0.0000,MISS,584.69,1,0,2026-07-09T16:25:37.4026320+02:00
theo,1,1,51,clear_hit,HIT,fast,fast,fast-fast,repetition,-7.44,0,0,0.0000,HIT,597.92,1,0,2026-07-09T16:25:42.7762360+02:00
theo,1,1,52,near_hit,MISS,fast,fast,fast-fast,repetition,38.84,0,0,0.0000,MISS,863.66,1,0,2026-07-09T16:25:48.5122805+02:00
theo,1,1,53,near_hit,MISS,fast,slow,fast-slow,transition,-32.60,0,0,0.0000,MISS,878.07,1,0,2026-07-09T16:25:54.4533504+02:00
theo,1,1,54,near_hit,MISS,slow,slow,slow-slow,repetition,36.50,0,0,0.0000,HIT,1183.34,0,0,2026-07-09T16:26:08.3919676+02:00
theo,1,1,55,clear_hit,HIT,slow,slow,slow-slow,repetition,1.73,0,0,0.0000,HIT,1267.22,1,0,2026-07-09T16:26:22.2722829+02:00
theo,1,1,56,clear_miss,MISS,slow,slow,slow-slow,repetition,71.28,0,0,0.0000,MISS,919.39,1,0,2026-07-09T16:26:35.7355946+02:00
theo,1,1,57,near_hit,MISS,slow,fast,slow-fast,transition,-34.87,0,0,0.0000,MISS,779.55,1,0,2026-07-09T16:26:49.3513925+02:00
theo,1,1,58,clear_miss,MISS,fast,fast,fast-fast,repetition,59.76,0,0,0.0000,MISS,710.15,1,0,2026-07-09T16:26:54.8790063+02:00
theo,1,1,59,near_miss,MISS,fast,fast,fast-fast,repetition,-59.61,0,0,0.0000,MISS,626.44,1,0,2026-07-09T16:27:00.2796932+02:00
theo,1,1,60,near_hit,MISS,fast,fast,fast-fast,repetition,37.50,0,0,0.0000,MISS,571.01,1,0,2026-07-09T16:27:06.0168186+02:00
theo,1,1,61,near_miss,MISS,fast,fast,fast-fast,repetition,-49.01,0,0,0.0000,MISS,724.27,1,0,2026-07-09T16:27:11.6964947+02:00
theo,1,1,62,near_miss,MISS,fast,slow,fast-slow,transition,54.84,0,0,0.0000,MISS,932.27,1,0,2026-07-09T16:27:17.2783255+02:00
theo,1,1,63,clear_miss,MISS,slow,slow,slow-slow,repetition,-70.62,0,0,0.0000,MISS,1308.50,1,0,2026-07-09T16:27:31.1171861+02:00
theo,1,1,64,near_hit,MISS,slow,slow,slow-slow,repetition,38.82,0,0,0.0000,HIT,737.08,0,0,2026-07-09T16:27:44.4983442+02:00
theo,1,1,65,near_miss,MISS,slow,slow,slow-slow,repetition,-52.95,0,0,0.0000,MISS,1419.46,1,0,2026-07-09T16:27:58.2100779+02:00
theo,1,1,66,clear_miss,MISS,slow,slow,slow-slow,repetition,-60.61,0,0,0.0000,MISS,1392.11,1,0,2026-07-09T16:28:11.7277806+02:00
theo,1,1,67,near_miss,MISS,slow,slow,slow-slow,repetition,55.14,0,0,0.0000,MISS,2381.00,1,0,2026-07-09T16:28:25.9421723+02:00
theo,1,1,68,near_hit,MISS,slow,fast,slow-fast,transition,-41.51,0,0,0.0000,MISS,780.13,1,0,2026-07-09T16:28:37.6932444+02:00
theo,1,1,69,near_hit,MISS,fast,fast,fast-fast,repetition,32.52,0,0,0.0000,MISS,655.91,1,0,2026-07-09T16:28:43.8071946+02:00
theo,1,1,70,clear_hit,HIT,fast,fast,fast-fast,repetition,9.45,0,0,0.0000,HIT,682.52,1,0,2026-07-09T16:28:49.5545408+02:00
theo,1,1,71,clear_miss,MISS,fast,fast,fast-fast,repetition,-69.57,0,0,0.0000,MISS,529.91,1,0,2026-07-09T16:28:55.2344158+02:00
theo,1,1,72,clear_hit,HIT,fast,fast,fast-fast,repetition,5.75,0,0,0.0000,HIT,974.24,1,0,2026-07-09T16:29:01.9165342+02:00
theo,1,1,73,clear_miss,MISS,fast,fast,fast-fast,repetition,-79.61,0,0,0.0000,MISS,640.87,1,0,2026-07-09T16:29:07.8762041+02:00
theo,1,1,74,near_hit,MISS,fast,fast,fast-fast,repetition,-42.74,0,0,0.0000,MISS,571.18,1,0,2026-07-09T16:29:13.1522149+02:00
theo,1,1,75,near_miss,MISS,fast,slow,fast-slow,transition,56.56,0,0,0.0000,MISS,2019.28,1,0,2026-07-09T16:29:20.5436304+02:00
theo,1,1,76,near_hit,MISS,slow,slow,slow-slow,repetition,43.62,0,0,0.0000,MISS,1615.20,1,0,2026-07-09T16:29:33.4374563+02:00
theo,1,1,77,near_miss,MISS,slow,slow,slow-slow,repetition,-52.56,0,0,0.0000,MISS,1015.55,1,0,2026-07-09T16:29:46.0365667+02:00
theo,1,1,78,clear_hit,HIT,slow,slow,slow-slow,repetition,-5.40,0,0,0.0000,MISS,1323.13,0,0,2026-07-09T16:29:59.9026470+02:00
theo,1,1,79,near_hit,MISS,slow,fast,slow-fast,transition,44.07,0,0,0.0000,MISS,2240.53,1,0,2026-07-09T16:30:14.5072746+02:00
theo,1,1,80,near_miss,MISS,fast,fast,fast-fast,repetition,-51.95,0,0,0.0000,MISS,696.26,1,0,2026-07-09T16:30:18.4761397+02:00
theo,1,1,81,near_hit,MISS,fast,fast,fast-fast,repetition,41.66,0,0,0.0000,MISS,877.36,1,0,2026-07-09T16:30:24.3367973+02:00
theo,1,1,82,near_hit,MISS,fast,slow,fast-slow,transition,34.93,0,0,0.0000,MISS,835.88,1,0,2026-07-09T16:30:30.2131724+02:00
theo,1,1,83,near_miss,MISS,slow,slow,slow-slow,repetition,-51.33,0,0,0.0000,MISS,1419.69,1,0,2026-07-09T16:30:44.2170831+02:00
theo,1,1,84,clear_miss,MISS,slow,slow,slow-slow,repetition,72.13,0,0,0.0000,MISS,1016.49,1,0,2026-07-09T16:30:57.2615222+02:00
theo,1,1,85,near_miss,MISS,slow,slow,slow-slow,repetition,-52.93,0,0,0.0000,MISS,1448.53,1,0,2026-07-09T16:31:11.2816763+02:00
theo,1,1,86,clear_hit,HIT,slow,slow,slow-slow,repetition,-0.69,0,0,0.0000,MISS,903.83,0,0,2026-07-09T16:31:24.0892708+02:00
theo,1,1,87,near_miss,MISS,slow,fast,slow-fast,transition,-47.20,0,0,0.0000,MISS,835.26,1,0,2026-07-09T16:31:37.0653193+02:00
theo,1,1,88,near_miss,MISS,fast,fast,fast-fast,repetition,59.65,0,0,0.0000,MISS,779.54,1,0,2026-07-09T16:31:42.3547129+02:00
theo,1,1,89,clear_hit,HIT,fast,fast,fast-fast,repetition,-4.46,0,0,0.0000,HIT,735.88,1,0,2026-07-09T16:31:48.5785052+02:00
theo,1,1,90,near_hit,MISS,fast,fast,fast-fast,repetition,42.17,0,0,0.0000,MISS,974.70,1,0,2026-07-09T16:31:54.5506222+02:00
theo,1,1,91,clear_hit,HIT,fast,fast,fast-fast,repetition,7.05,0,0,0.0000,HIT,863.20,1,0,2026-07-09T16:32:00.7184977+02:00
theo,1,1,92,near_miss,MISS,fast,slow,fast-slow,transition,54.82,0,0,0.0000,MISS,1809.72,1,0,2026-07-09T16:32:07.8878981+02:00
theo,1,1,93,clear_hit,HIT,slow,slow,slow-slow,repetition,-1.33,0,0,0.0000,HIT,2004.77,1,0,2026-07-09T16:32:21.1013006+02:00
theo,1,1,94,near_hit,MISS,slow,slow,slow-slow,repetition,-40.12,0,0,0.0000,MISS,1169.76,1,0,2026-07-09T16:32:33.4362909+02:00
theo,1,1,95,clear_miss,MISS,slow,slow,slow-slow,repetition,-83.34,0,0,0.0000,MISS,1364.69,1,0,2026-07-09T16:32:47.0647316+02:00
theo,1,1,96,near_hit,MISS,slow,slow,slow-slow,repetition,35.76,0,0,0.0000,HIT,1824.17,0,0,2026-07-09T16:33:00.8617398+02:00
theo,1,1,97,clear_miss,MISS,slow,slow,slow-slow,repetition,76.10,0,0,0.0000,MISS,2812.97,1,0,2026-07-09T16:33:15.1459303+02:00
theo,1,1,98,near_miss,MISS,slow,slow,slow-slow,repetition,-47.31,0,0,0.0000,MISS,1767.92,1,0,2026-07-09T16:33:27.2726847+02:00
theo,1,1,99,near_miss,MISS,slow,fast,slow-fast,transition,-55.93,0,0,0.0000,MISS,794.15,1,0,2026-07-09T16:33:40.0123384+02:00
theo,1,1,100,near_hit,MISS,fast,fast,fast-fast,repetition,-35.77,0,0,0.0000,MISS,654.71,1,0,2026-07-09T16:33:45.3027306+02:00
theo,1,1,101,clear_hit,HIT,fast,fast,fast-fast,repetition,10.66,0,0,0.0000,MISS,989.22,0,0,2026-07-09T16:33:50.9966583+02:00
theo,1,1,102,clear_miss,MISS,fast,fast,fast-fast,repetition,63.50,0,0,0.0000,MISS,1112.66,1,0,2026-07-09T16:33:56.6328019+02:00
theo,1,1,103,near_miss,MISS,fast,slow,fast-slow,transition,47.13,0,0,0.0000,MISS,1113.07,1,0,2026-07-09T16:34:02.5498503+02:00
theo,1,1,104,near_hit,MISS,slow,slow,slow-slow,repetition,-34.76,0,0,0.0000,HIT,2297.84,0,0,2026-07-09T16:34:17.0996129+02:00
theo,1,1,105,clear_miss,MISS,slow,slow,slow-slow,repetition,79.67,0,0,0.0000,MISS,1029.48,1,0,2026-07-09T16:34:29.1552612+02:00
theo,1,1,106,near_hit,MISS,slow,fast,slow-fast,transition,32.67,0,0,0.0000,MISS,834.80,1,0,2026-07-09T16:34:42.0338469+02:00
theo,1,1,107,clear_hit,HIT,fast,fast,fast-fast,repetition,-9.89,0,0,0.0000,MISS,1308.84,0,0,2026-07-09T16:34:48.3835675+02:00
theo,1,1,108,clear_miss,MISS,fast,fast,fast-fast,repetition,-73.47,0,0,0.0000,MISS,668.68,1,0,2026-07-09T16:34:53.9373792+02:00
theo,1,1,109,near_hit,MISS,fast,slow,fast-slow,transition,39.88,0,0,0.0000,MISS,2171.62,1,0,2026-07-09T16:35:01.1899997+02:00
theo,1,1,110,clear_miss,MISS,slow,slow,slow-slow,repetition,-87.49,0,0,0.0000,MISS,1141.98,1,0,2026-07-09T16:35:13.9570990+02:00
theo,1,1,111,near_miss,MISS,slow,slow,slow-slow,repetition,-49.44,0,0,0.0000,MISS,1840.33,1,0,2026-07-09T16:35:28.4905426+02:00
theo,1,1,112,near_hit,MISS,slow,fast,slow-fast,transition,-32.57,0,0,0.0000,MISS,932.58,1,0,2026-07-09T16:35:41.0641191+02:00
theo,1,1,113,near_hit,MISS,fast,fast,fast-fast,repetition,34.50,0,0,0.0000,MISS,653.27,1,0,2026-07-09T16:35:46.4240465+02:00
theo,1,1,114,clear_hit,HIT,fast,fast,fast-fast,repetition,-2.62,0,0,0.0000,HIT,737.60,1,0,2026-07-09T16:35:52.4105638+02:00
theo,1,1,115,near_miss,MISS,fast,slow,fast-slow,transition,54.03,0,0,0.0000,MISS,1503.45,1,0,2026-07-09T16:35:58.9667534+02:00
theo,1,1,116,clear_hit,HIT,slow,slow,slow-slow,repetition,-10.06,0,0,0.0000,HIT,1990.81,1,0,2026-07-09T16:36:13.2923224+02:00
theo,1,1,117,near_miss,MISS,slow,slow,slow-slow,repetition,48.08,0,0,0.0000,MISS,1447.96,1,0,2026-07-09T16:36:26.4781356+02:00
theo,1,1,118,near_miss,MISS,slow,fast,slow-fast,transition,55.33,0,0,0.0000,MISS,1142.04,1,0,2026-07-09T16:36:39.8848488+02:00
theo,1,1,119,clear_hit,HIT,fast,fast,fast-fast,repetition,-3.14,0,0,0.0000,HIT,933.49,1,0,2026-07-09T16:36:45.7461840+02:00
theo,1,1,120,near_miss,MISS,fast,fast,fast-fast,repetition,47.92,0,0,0.0000,MISS,668.40,1,0,2026-07-09T16:36:50.8692367+02:00
theo,1,1,121,clear_hit,HIT,fast,fast,fast-fast,repetition,8.76,0,0,0.0000,MISS,681.98,0,0,2026-07-09T16:36:57.1471321+02:00
theo,1,1,122,clear_miss,MISS,fast,fast,fast-fast,repetition,-84.52,0,0,0.0000,MISS,752.77,1,0,2026-07-09T16:37:02.9122504+02:00
theo,1,1,123,near_miss,MISS,fast,fast,fast-fast,repetition,-54.30,0,0,0.0000,MISS,752.49,1,0,2026-07-09T16:37:08.2712228+02:00
theo,1,1,124,clear_hit,HIT,fast,fast,fast-fast,repetition,0.00,0,0,0.0000,HIT,1545.76,1,0,2026-07-09T16:37:14.8564367+02:00
theo,1,1,125,near_miss,MISS,fast,slow,fast-slow,transition,-50.23,0,0,0.0000,MISS,1071.53,1,0,2026-07-09T16:37:20.0275101+02:00
theo,1,1,126,near_miss,MISS,slow,slow,slow-slow,repetition,-56.41,0,0,0.0000,MISS,960.06,1,0,2026-07-09T16:37:32.8019484+02:00
theo,1,1,127,clear_hit,HIT,slow,slow,slow-slow,repetition,0.74,0,0,0.0000,HIT,612.74,1,0,2026-07-09T16:37:45.9054450+02:00
theo,1,1,128,near_miss,MISS,slow,slow,slow-slow,repetition,53.14,0,0,0.0000,MISS,1183.27,1,0,2026-07-09T16:37:59.8665905+02:00
theo,1,1,129,clear_hit,HIT,slow,slow,slow-slow,repetition,1.81,0,0,0.0000,HIT,765.41,1,0,2026-07-09T16:38:13.0650735+02:00
theo,1,1,130,clear_miss,MISS,slow,slow,slow-slow,repetition,88.22,0,0,0.0000,MISS,1308.83,1,0,2026-07-09T16:38:26.9302776+02:00
theo,1,1,131,near_hit,MISS,slow,fast,slow-fast,transition,39.48,0,0,0.0000,MISS,807.52,1,0,2026-07-09T16:38:39.6561159+02:00
theo,1,1,132,clear_miss,MISS,fast,fast,fast-fast,repetition,81.40,0,0,0.0000,MISS,682.51,1,0,2026-07-09T16:38:45.2099465+02:00
theo,1,1,133,clear_hit,HIT,fast,fast,fast-fast,repetition,-9.02,0,0,0.0000,HIT,1031.54,1,0,2026-07-09T16:38:51.3244871+02:00
theo,1,1,134,clear_miss,MISS,fast,fast,fast-fast,repetition,-86.77,0,0,0.0000,MISS,682.05,1,0,2026-07-09T16:38:56.5158042+02:00
theo,1,1,135,near_miss,MISS,fast,slow,fast-slow,transition,53.35,0,0,0.0000,MISS,598.74,1,0,2026-07-09T16:39:02.5026768+02:00
theo,1,1,136,clear_miss,MISS,slow,slow,slow-slow,repetition,-77.76,0,0,0.0000,MISS,1392.46,1,0,2026-07-09T16:39:16.4931096+02:00
theo,1,1,137,near_hit,MISS,slow,slow,slow-slow,repetition,42.42,0,0,0.0000,MISS,1169.18,1,0,2026-07-09T16:39:30.2354230+02:00
theo,1,1,138,near_miss,MISS,slow,fast,slow-fast,transition,45.61,0,0,0.0000,MISS,849.16,1,0,2026-07-09T16:39:43.3083416+02:00
theo,1,1,139,clear_miss,MISS,fast,fast,fast-fast,repetition,67.66,0,0,0.0000,MISS,640.59,1,0,2026-07-09T16:39:48.8081201+02:00
theo,1,1,140,near_hit,MISS,fast,fast,fast-fast,repetition,-40.07,0,0,0.0000,MISS,501.49,1,0,2026-07-09T16:39:54.8781848+02:00
theo,1,1,141,near_miss,MISS,fast,slow,fast-slow,transition,-46.20,0,0,0.0000,MISS,1002.21,1,0,2026-07-09T16:40:00.9195742+02:00
theo,1,1,142,near_hit,MISS,slow,slow,slow-slow,repetition,-32.43,0,0,0.0000,MISS,1573.19,1,0,2026-07-09T16:40:15.2037521+02:00
theo,1,1,143,near_miss,MISS,slow,slow,slow-slow,repetition,-57.99,0,0,0.0000,MISS,1530.84,1,0,2026-07-09T16:40:28.4701966+02:00
theo,1,1,144,near_miss,MISS,slow,fast,slow-fast,transition,-52.03,0,0,0.0000,MISS,654.69,1,0,2026-07-09T16:40:41.3501595+02:00
theo,1,1,145,clear_hit,HIT,fast,fast,fast-fast,repetition,0.00,0,0,0.0000,HIT,793.80,1,0,2026-07-09T16:40:47.2526840+02:00
theo,1,1,146,near_miss,MISS,fast,fast,fast-fast,repetition,-46.29,0,0,0.0000,MISS,766.60,1,0,2026-07-09T16:40:52.7940147+02:00
theo,1,1,147,near_miss,MISS,fast,slow,fast-slow,transition,59.50,0,0,0.0000,MISS,2729.29,1,0,2026-07-09T16:41:00.8259061+02:00
theo,1,1,148,near_miss,MISS,slow,slow,slow-slow,repetition,-47.88,0,0,0.0000,HIT,1448.20,0,0,2026-07-09T16:41:13.4256669+02:00
theo,1,1,149,clear_hit,HIT,slow,slow,slow-slow,repetition,0.00,0,0,0.0000,HIT,1336.50,1,0,2026-07-09T16:41:26.5827782+02:00
theo,1,1,150,near_hit,MISS,slow,slow,slow-slow,repetition,31.02,0,0,0.0000,MISS,1183.18,1,0,2026-07-09T16:41:40.1435860+02:00
theo,1,1,151,near_hit,MISS,slow,fast,slow-fast,transition,41.71,0,0,0.0000,MISS,766.20,1,0,2026-07-09T16:41:53.2181422+02:00
theo,1,1,152,clear_hit,HIT,fast,fast,fast-fast,repetition,0.00,0,0,0.0000,HIT,1183.49,1,0,2026-07-09T16:41:59.0237464+02:00
theo,1,1,153,clear_miss,MISS,fast,fast,fast-fast,repetition,86.47,0,0,0.0000,MISS,710.02,1,0,2026-07-09T16:42:03.8690514+02:00
theo,1,1,154,clear_hit,HIT,fast,fast,fast-fast,repetition,-4.34,0,0,0.0000,MISS,9634.10,0,0,2026-07-09T16:42:18.7812461+02:00
theo,1,1,155,near_miss,MISS,fast,fast,fast-fast,repetition,48.07,0,0,0.0000,HIT,125.32,0,0,2026-07-09T16:42:18.9069458+02:00
theo,1,1,156,clear_miss,MISS,fast,fast,fast-fast,repetition,-67.49,0,0,0.0000,MISS,69929.51,1,0,2026-07-09T16:43:34.7450303+02:00
theo,1,1,157,near_hit,MISS,fast,slow,fast-slow,transition,-33.33,0,0,0.0000,MISS,264.75,1,0,2026-07-09T16:43:35.0103429+02:00
theo,1,1,158,near_miss,MISS,slow,slow,slow-slow,repetition,57.79,0,0,0.0000,MISS,51133.57,1,0,2026-07-09T16:44:39.4847723+02:00
theo,1,1,159,clear_hit,HIT,slow,slow,slow-slow,repetition,0.00,0,0,0.0000,HIT,195.29,1,0,2026-07-09T16:44:39.6802717+02:00
