subject_id,session_number,block_number,trial_number,trial_type,response_made,current_speed,width,distance_level,trial_start_ms,stimulus_onset_ms,position_D4_ms,position_D3_ms,position_D2_ms,position_D1_ms,vibrotactile_onset_ms,response_time_ms,reaction_time_ms,vibration_device,trial_interrupted,timestamp
franc,1,1,1,VT,1,fast,wide,D6,63594.340,63594.340,64290.851,64416.491,64541.647,64792.331,64054.567,64332.675,278.1,None,0,2026-07-10T15:07:46.1019068+02:00
franc,1,1,2,VT,1,slow,narrow,D7,68105.862,68105.862,69803.918,70152.186,70527.741,71307.161,68314.227,68620.833,306.6,None,0,2026-07-10T15:07:50.8200858+02:00
franc,1,1,3,VT,1,fast,narrow,D6,72824.146,72824.146,73520.883,73632.429,73771.186,74022.036,73283.780,73520.883,237.1,None,0,2026-07-10T15:07:55.3315633+02:00
franc,1,1,4,V,1,fast,narrow,,77336.257,77336.257,78032.845,78158.013,78283.422,78533.410,,78868.165,,None,0,2026-07-10T15:07:59.8432303+02:00
franc,1,1,5,T,1,slow,wide,D6,81847.681,,,,,,82626.994,82961.723,334.7,None,0,2026-07-10T15:08:04.3550008+02:00
franc,1,1,6,VT,1,slow,narrow,D3,86358.126,86358.126,88056.180,88404.104,88780.430,89545.866,88404.104,88738.395,334.3,None,0,2026-07-10T15:08:09.0747487+02:00
franc,1,1,7,VT,1,slow,narrow,D2,91077.178,91077.178,92775.790,93124.362,93499.852,94266.084,93499.852,93821.055,321.2,None,0,2026-07-10T15:08:13.7945287+02:00
franc,1,1,8,VT,1,slow,narrow,D1,95796.989,95796.989,97495.857,97844.392,98231.108,98997.960,98997.960,99304.439,306.5,None,0,2026-07-10T15:08:18.8134508+02:00
franc,1,1,9,T,1,slow,narrow,D4,100808.677,,,,,,102312.298,102758.035,445.7,None,0,2026-07-10T15:08:23.3171064+02:00
franc,1,1,10,VT,1,fast,narrow,D4,105319.474,105319.474,106015.552,106140.172,106265.506,106516.258,106015.552,106350.251,334.7,None,0,2026-07-10T15:08:27.8283406+02:00
franc,1,1,11,VT,1,fast,wide,D7,109829.989,109829.989,110526.040,110651.227,110776.961,111026.959,110039.585,110471.096,431.5,None,0,2026-07-10T15:08:32.3395288+02:00
franc,1,1,12,V,0,slow,wide,,114340.377,114340.377,116039.537,116387.354,116763.259,117528.676,,,,None,0,2026-07-10T15:08:37.0594848+02:00
franc,1,1,13,T,1,slow,wide,D3,119061.475,,,,,,120911.427,125297.290,4385.9,None,0,2026-07-10T15:08:44.8057638+02:00
franc,1,1,14,VT,1,fast,narrow,D1,126801.212,126801.212,127497.195,127622.807,127748.062,127998.496,127998.496,128277.113,278.6,None,0,2026-07-10T15:08:49.3120603+02:00
franc,1,1,15,VT,1,fast,wide,D1,131312.099,131312.099,132008.152,132133.875,132259.053,132509.287,132509.287,132773.872,264.6,None,0,2026-07-10T15:08:53.8237125+02:00
franc,1,1,16,VT,1,slow,wide,D2,135823.093,135823.093,137521.557,137869.904,138245.390,139011.170,138245.390,138523.992,278.6,None,0,2026-07-10T15:08:58.5439949+02:00
franc,1,1,17,VT,1,fast,narrow,D2,140542.833,140542.833,141239.332,141364.396,141489.287,141740.526,141489.287,141740.526,251.2,None,0,2026-07-10T15:09:03.0541789+02:00
franc,1,1,18,VT,1,fast,wide,D4,145052.877,145052.877,145749.217,145861.152,146000.670,146250.851,145749.217,146223.481,474.3,None,0,2026-07-10T15:09:07.5665737+02:00
franc,1,1,19,VT,1,slow,wide,D1,149564.943,149564.943,151263.141,151611.059,151986.904,152752.749,152752.749,153100.489,347.7,None,0,2026-07-10T15:09:12.6108336+02:00
franc,1,1,20,V,0,slow,narrow,,154603.979,154603.979,156303.278,156650.675,157026.684,157792.115,,,,None,0,2026-07-10T15:09:17.3263740+02:00
franc,1,1,21,VT,1,fast,narrow,D1,159323.805,159323.805,160020.230,160145.337,160271.096,160521.340,160521.340,160869.576,348.2,None,0,2026-07-10T15:09:21.8378600+02:00
franc,1,1,22,VT,1,fast,wide,D7,163834.652,163834.652,164530.527,164655.852,164781.418,165031.896,164043.064,164377.436,334.4,None,0,2026-07-10T15:09:26.3481305+02:00
franc,1,1,23,VT,1,slow,wide,D4,168344.731,168344.731,170043.247,170391.060,170787.391,171532.793,170043.247,170544.246,501.0,None,0,2026-07-10T15:09:31.0678186+02:00
franc,1,1,24,VT,1,fast,wide,D7,173064.048,173064.048,173760.191,173885.647,174011.070,174261.514,173273.046,173593.150,320.1,None,0,2026-07-10T15:09:35.5787804+02:00
franc,1,1,25,VT,1,slow,narrow,D5,177575.380,177575.380,179273.194,179621.304,179997.391,180777.224,178939.253,179343.744,404.5,None,0,2026-07-10T15:09:40.2985900+02:00
franc,1,1,26,VT,1,slow,wide,D6,182294.229,182294.229,183993.077,184341.077,184716.870,185482.490,183268.911,183533.659,264.7,None,0,2026-07-10T15:09:45.0176192+02:00
franc,1,1,27,T,1,slow,wide,D5,187013.970,,,,,,188183.929,192457.658,4273.7,None,0,2026-07-10T15:09:51.9704447+02:00
franc,1,1,28,VT,1,slow,narrow,D7,193960.975,193960.975,195659.134,196007.527,196383.495,197149.406,194170.007,194531.677,361.7,None,0,2026-07-10T15:09:56.6846551+02:00
franc,1,1,29,V,0,fast,wide,,198680.399,198680.399,199376.689,199501.501,199627.001,199877.934,,,,None,0,2026-07-10T15:10:01.1947123+02:00
franc,1,1,30,T,1,fast,wide,D6,203191.253,,,,,,203456.202,203762.631,306.4,None,0,2026-07-10T15:10:05.7062462+02:00
franc,1,1,31,T,1,slow,narrow,D5,207703.031,,,,,,208873.077,212644.898,3771.8,None,0,2026-07-10T15:10:12.1541120+02:00
franc,1,1,32,V,0,slow,narrow,,214148.211,214148.211,215846.565,216194.743,216570.426,217336.429,,,,None,0,2026-07-10T15:10:16.8712662+02:00
franc,1,1,33,VT,1,fast,wide,D6,218868.008,218868.008,219564.292,219676.142,219815.148,220065.316,219327.819,219647.703,319.9,None,0,2026-07-10T15:10:21.3830543+02:00
franc,1,1,34,VT,1,slow,wide,D5,223379.725,223379.725,225077.651,225425.681,225801.382,226581.180,224743.589,225022.399,278.8,None,0,2026-07-10T15:10:26.1027121+02:00
franc,1,1,35,VT,1,fast,wide,D5,228098.258,228098.258,228794.512,228919.727,229044.980,229295.452,228683.209,228989.209,306.0,None,0,2026-07-10T15:10:30.6128967+02:00
franc,1,1,36,VT,1,slow,narrow,D6,232609.198,232609.198,234307.503,234655.606,235031.673,235796.896,233583.606,233890.059,306.5,None,0,2026-07-10T15:10:35.3317512+02:00
franc,1,1,37,T,1,fast,narrow,D2,237328.813,,,,,,238080.519,238372.939,292.4,None,0,2026-07-10T15:10:39.8427821+02:00
franc,1,1,38,V,0,slow,wide,,241838.947,241838.947,243538.114,243886.509,244262.154,245027.819,,,,None,0,2026-07-10T15:10:44.5625363+02:00
franc,1,1,39,VT,1,fast,wide,D2,246559.111,246559.111,247255.191,247380.544,247505.852,247756.465,247505.852,247728.843,223.0,None,0,2026-07-10T15:10:49.0733478+02:00
franc,1,1,40,V,1,fast,narrow,,251069.167,251069.167,251765.416,251877.192,252016.655,252266.672,,252211.086,,None,0,2026-07-10T15:10:53.5843004+02:00
franc,1,1,41,V,0,slow,narrow,,255580.047,255580.047,257278.937,257626.737,258002.580,258768.507,,,,None,0,2026-07-10T15:10:58.3034955+02:00
franc,1,1,42,T,1,fast,narrow,D1,260299.896,,,,,,261302.082,261692.094,390.0,None,0,2026-07-10T15:11:02.8138672+02:00
franc,1,1,43,V,0,fast,narrow,,264810.759,264810.759,265506.618,265631.986,265757.249,266007.714,,,,None,0,2026-07-10T15:11:07.3250994+02:00
franc,1,1,44,T,1,fast,narrow,D6,269321.615,,,,,,269585.578,274482.965,4897.4,None,0,2026-07-10T15:11:13.9956060+02:00
franc,1,1,45,VT,1,slow,wide,D4,275988.384,275988.384,277687.974,278036.344,278412.163,279177.745,277687.974,278189.413,501.4,None,0,2026-07-10T15:11:18.7134475+02:00
franc,1,1,46,VT,1,fast,narrow,D3,280709.949,280709.949,281406.212,281531.491,281656.675,281907.714,281531.491,281837.876,306.4,None,0,2026-07-10T15:11:23.2242617+02:00
franc,1,1,47,V,0,fast,wide,,285221.083,285221.083,285917.551,286029.176,286167.605,286418.118,,,,None,0,2026-07-10T15:11:27.7355160+02:00
franc,1,1,48,VT,1,fast,narrow,D4,289731.205,289731.205,290427.507,290552.708,290677.744,290928.543,290427.507,290733.786,306.3,None,0,2026-07-10T15:11:32.2455104+02:00
franc,1,1,49,V,0,slow,narrow,,294242.114,294242.114,295940.795,296288.873,296664.525,297431.014,,,,None,0,2026-07-10T15:11:36.9661840+02:00
franc,1,1,50,VT,1,fast,wide,D1,298962.154,298962.154,299658.218,299783.762,299909.095,300159.543,300159.543,300521.702,362.2,None,0,2026-07-10T15:11:41.4762792+02:00
franc,1,1,51,VT,1,slow,wide,D7,303472.627,303472.627,305171.468,305519.259,305895.821,306661.231,303681.190,304043.242,362.1,None,0,2026-07-10T15:11:46.1969086+02:00
franc,1,1,52,VT,1,slow,narrow,D2,308192.096,308192.096,309890.537,310238.546,310614.445,311394.075,310614.445,310948.593,334.1,None,0,2026-07-10T15:11:50.9154672+02:00
franc,1,1,53,V,0,fast,wide,,312911.376,312911.376,313607.544,313719.409,313858.816,314108.868,,,,None,0,2026-07-10T15:11:55.4251974+02:00
franc,1,1,54,T,1,slow,wide,D2,317421.838,,,,,,319649.651,320081.665,432.0,None,0,2026-07-10T15:11:59.9379626+02:00
franc,1,1,55,VT,1,slow,wide,D6,321933.379,321933.379,323631.503,323979.499,324355.180,325121.293,322907.747,323283.585,375.8,None,0,2026-07-10T15:12:04.6561214+02:00
franc,1,1,56,T,1,fast,narrow,D4,326653.113,,,,,,327154.392,327488.593,334.2,None,0,2026-07-10T15:12:09.1678763+02:00
franc,1,1,57,T,1,fast,wide,D3,331164.384,,,,,,331790.913,332097.420,306.5,None,0,2026-07-10T15:12:13.6782265+02:00
franc,1,1,58,V,0,slow,wide,,335674.747,335674.747,337373.519,337721.564,338097.611,338863.307,,,,None,0,2026-07-10T15:12:18.3985979+02:00
franc,1,1,59,V,0,slow,wide,,340394.495,340394.495,342092.917,342440.693,342817.248,343582.851,,,,None,0,2026-07-10T15:12:23.1182360+02:00
franc,1,1,60,T,1,fast,narrow,D7,345113.979,,,,,,345113.979,351628.477,6514.5,None,0,2026-07-10T15:12:31.1373985+02:00
franc,1,1,61,VT,1,fast,narrow,D7,353132.006,353132.006,353828.473,353953.383,354078.939,354329.777,353341.140,353800.605,459.5,None,0,2026-07-10T15:12:35.6469113+02:00
franc,1,1,62,VT,1,slow,narrow,D2,357642.959,357642.959,359341.749,359689.459,360065.686,360845.524,360065.686,360357.807,292.1,None,0,2026-07-10T15:12:40.3669559+02:00
franc,1,1,63,VT,1,slow,wide,D7,362362.144,362362.144,364061.302,364409.070,364785.288,365564.442,362571.611,362947.461,375.8,None,0,2026-07-10T15:12:45.0855445+02:00
franc,1,1,64,VT,1,slow,wide,D7,367081.950,367081.950,368780.504,369128.601,369504.619,370270.179,367290.864,371858.076,4567.2,None,0,2026-07-10T15:12:51.3664687+02:00
franc,1,1,65,VT,1,slow,narrow,D6,373361.326,373361.326,375059.901,375407.502,375783.904,376549.249,374335.866,374697.412,361.5,None,0,2026-07-10T15:12:56.0845755+02:00
franc,1,1,66,VT,1,slow,wide,D3,378080.769,378080.769,379779.456,380127.224,380503.293,381269.125,380127.224,380433.428,306.2,None,0,2026-07-10T15:13:00.8038387+02:00
franc,1,1,67,VT,1,slow,wide,D6,382800.572,382800.572,384498.754,384846.680,385222.636,385988.831,383774.769,384067.037,292.3,None,0,2026-07-10T15:13:05.5237396+02:00
franc,1,1,68,VT,1,slow,wide,D2,387520.039,387520.039,389219.268,389566.269,389942.352,390708.386,389942.352,390234.859,292.5,None,0,2026-07-10T15:13:10.2427011+02:00
franc,1,1,69,VT,1,fast,narrow,D2,392239.617,392239.617,392935.806,393060.963,393186.354,393436.837,393186.354,393451.066,264.7,None,0,2026-07-10T15:13:14.7537725+02:00
franc,1,1,70,VT,1,fast,wide,D2,396750.385,396750.385,397446.361,397558.386,397697.236,397948.062,397697.236,397975.911,278.7,None,0,2026-07-10T15:13:19.2650908+02:00
franc,1,1,71,T,1,slow,wide,D7,401261.098,,,,,,401261.098,406008.808,4747.7,None,0,2026-07-10T15:13:25.5183098+02:00
franc,1,1,72,T,1,slow,wide,D4,407512.241,,,,,,409015.465,409558.722,543.3,None,0,2026-07-10T15:13:30.0262741+02:00
franc,1,1,73,VT,1,fast,narrow,D5,412022.719,412022.719,412718.843,412843.862,412969.739,413220.434,412607.318,412955.780,348.5,None,0,2026-07-10T15:13:34.5379762+02:00
franc,1,1,74,VT,1,slow,narrow,D4,416533.616,416533.616,418232.846,418580.626,418956.438,419722.113,418232.846,418594.526,361.7,None,0,2026-07-10T15:13:39.2576160+02:00
franc,1,1,75,T,1,fast,wide,D7,421253.905,,,,,,421253.905,425876.157,4622.3,None,0,2026-07-10T15:13:45.3848224+02:00
franc,1,1,76,V,0,fast,narrow,,427379.344,427379.344,428075.797,428200.775,428326.127,428576.565,,,,None,0,2026-07-10T15:13:49.8940524+02:00
franc,1,1,77,V,0,slow,wide,,431890.753,431890.753,433589.262,433937.451,434313.233,435092.519,,,,None,0,2026-07-10T15:13:54.6135364+02:00
franc,1,1,78,VT,1,slow,narrow,D1,436609.847,436609.847,438308.177,438656.215,439031.764,439797.593,439797.593,440063.502,265.9,None,0,2026-07-10T15:13:59.5718742+02:00
franc,1,1,79,T,1,slow,narrow,D2,441551.854,,,,,,443779.118,444141.163,362.0,None,0,2026-07-10T15:14:04.0658575+02:00
franc,1,1,80,V,0,fast,wide,,446062.678,446062.678,446759.035,446884.391,447010.341,447260.219,,,,None,0,2026-07-10T15:14:08.5768303+02:00
franc,1,1,81,V,0,slow,narrow,,450573.613,450573.613,452271.949,452620.179,452995.873,453761.730,,,,None,0,2026-07-10T15:14:13.2963542+02:00
franc,1,1,82,VT,1,slow,wide,D2,455292.748,455292.748,456991.600,457339.739,457715.727,458481.511,457715.727,455523.336,-2192.4,None,0,2026-07-10T15:14:18.0164003+02:00
franc,1,1,83,V,0,fast,narrow,,460012.744,460012.744,460709.380,460834.227,460959.502,461210.148,,,,None,0,2026-07-10T15:14:22.5274866+02:00
franc,1,1,84,VT,1,fast,narrow,D7,464523.156,464523.156,465219.714,465344.470,465469.909,465720.243,464731.794,465010.505,278.7,None,0,2026-07-10T15:14:27.0372829+02:00
franc,1,1,85,V,0,fast,wide,,469034.093,469034.093,469729.872,469854.912,469980.379,470231.241,,,,None,0,2026-07-10T15:14:31.5485293+02:00
franc,1,1,86,T,1,slow,narrow,D3,473544.391,,,,,,475396.083,475674.411,278.3,None,0,2026-07-10T15:14:36.0728180+02:00
franc,1,1,87,VT,1,slow,wide,D3,478069.131,478069.131,479767.514,480115.505,480491.581,481256.959,480115.505,480505.409,389.9,None,0,2026-07-10T15:14:40.7929782+02:00
franc,1,1,88,VT,1,fast,narrow,D6,482788.989,482788.989,483484.880,483610.044,483735.556,483985.888,483248.279,483623.855,375.6,None,0,2026-07-10T15:14:45.3033204+02:00
franc,1,1,89,VT,1,slow,wide,D4,487299.402,487299.402,488997.906,489346.052,489721.525,490501.487,488997.906,489275.980,278.1,None,0,2026-07-10T15:14:50.0226330+02:00
franc,1,1,90,V,0,slow,narrow,,492018.958,492018.958,493717.652,494065.409,494441.045,495206.866,,,,None,0,2026-07-10T15:14:54.7426780+02:00
franc,1,1,91,V,0,slow,narrow,,496738.338,496738.338,498436.843,498785.670,499161.071,499926.963,,,,None,0,2026-07-10T15:14:59.4617603+02:00
franc,1,1,92,VT,1,fast,wide,D3,501458.155,501458.155,502154.273,502279.559,502404.662,502655.700,502279.559,502585.964,306.4,None,0,2026-07-10T15:15:03.9726173+02:00
franc,1,1,93,VT,1,slow,narrow,D4,505968.314,505968.314,507667.169,508015.242,508391.272,509156.868,507667.169,507959.777,292.6,None,0,2026-07-10T15:15:08.6919049+02:00
franc,1,1,94,T,1,slow,wide,D1,510688.601,,,,,,513695.586,514029.873,334.3,None,0,2026-07-10T15:15:13.5382632+02:00
franc,1,1,95,VT,1,slow,wide,D3,515533.458,515533.458,517231.729,517580.315,517955.677,518721.749,517580.315,522090.747,4510.4,None,0,2026-07-10T15:15:21.5992490+02:00
franc,1,1,96,VT,1,fast,wide,D4,523594.276,523594.276,524290.404,524415.253,524540.955,524791.430,524290.404,524610.508,320.1,None,0,2026-07-10T15:15:26.1096931+02:00
franc,1,1,97,VT,1,fast,wide,D1,528105.146,528105.146,528801.684,528926.239,529051.481,529302.098,529302.098,529636.548,334.5,None,0,2026-07-10T15:15:30.6193126+02:00
franc,1,1,98,VT,1,slow,narrow,D6,532615.740,532615.740,534314.073,534662.579,535038.739,535804.294,533590.420,533979.979,389.6,None,0,2026-07-10T15:15:35.3397775+02:00
franc,1,1,99,VT,1,slow,narrow,D3,537335.300,537335.300,539033.619,539382.020,539757.872,540523.526,539382.020,539688.090,306.1,None,0,2026-07-10T15:15:40.0592271+02:00
franc,1,1,100,VT,1,slow,wide,D1,542054.805,542054.805,543753.378,544101.536,544477.654,545243.609,545243.609,545503.037,259.4,None,0,2026-07-10T15:15:45.0116646+02:00
franc,1,1,101,VT,1,fast,narrow,D5,546997.821,546997.821,547694.273,547819.842,547944.904,548195.779,547582.909,547875.567,292.7,None,0,2026-07-10T15:15:49.5127771+02:00
franc,1,1,102,V,0,fast,narrow,,551509.407,551509.407,552206.231,552330.648,552455.876,552706.574,,,,None,0,2026-07-10T15:15:54.0240652+02:00
franc,1,1,103,T,1,fast,narrow,D5,556020.077,,,,,,556409.912,556743.620,333.7,None,0,2026-07-10T15:15:58.5335327+02:00
franc,1,1,104,T,1,fast,narrow,D3,560530.020,,,,,,561156.594,561310.016,153.4,None,0,2026-07-10T15:16:03.0445198+02:00
franc,1,1,105,T,1,fast,wide,D5,565039.897,,,,,,565429.732,565666.957,237.2,None,0,2026-07-10T15:16:07.5549059+02:00
franc,1,1,106,VT,1,slow,wide,D5,569551.829,569551.829,571250.494,571597.535,571973.865,572753.355,570916.309,571529.240,612.9,None,0,2026-07-10T15:16:12.2743455+02:00
franc,1,1,107,VT,1,fast,narrow,D4,574268.685,574268.685,574965.247,575076.862,575216.024,575466.792,574965.247,575285.906,320.7,None,0,2026-07-10T15:16:16.7850855+02:00
franc,1,1,108,T,1,slow,narrow,D1,578781.947,,,,,,581788.765,582095.116,306.4,None,0,2026-07-10T15:16:21.6034422+02:00
franc,1,1,109,VT,1,fast,wide,D2,583599.044,583599.044,584295.573,584420.751,584546.265,584796.687,584546.265,585883.152,1336.9,None,0,2026-07-10T15:16:26.1137231+02:00
franc,1,1,110,VT,1,slow,wide,D5,588109.808,588109.808,589808.231,590156.145,590532.570,591311.818,589474.845,590226.180,751.3,None,0,2026-07-10T15:16:30.8334551+02:00
franc,1,1,111,VT,1,fast,narrow,D6,592828.604,592828.604,593525.029,593650.044,593775.784,594026.165,593288.602,593663.926,375.3,None,0,2026-07-10T15:16:35.3435183+02:00
franc,1,1,112,VT,1,slow,narrow,D5,597339.199,597339.199,599037.879,599385.490,599761.855,600527.767,598703.603,599093.540,389.9,None,0,2026-07-10T15:16:40.0628458+02:00
franc,1,1,113,VT,1,slow,narrow,D4,602059.510,602059.510,603757.779,604106.130,604482.238,605248.389,603757.779,604050.569,292.8,None,0,2026-07-10T15:16:44.7832581+02:00
franc,1,1,114,VT,1,fast,wide,D4,606779.445,606779.445,607475.185,607600.508,607726.105,607976.585,607475.185,607851.326,376.1,None,0,2026-07-10T15:16:49.2944532+02:00
franc,1,1,115,T,1,fast,wide,D1,611289.803,,,,,,612291.994,611888.405,-403.6,None,0,2026-07-10T15:16:53.8042975+02:00
franc,1,1,116,VT,1,fast,wide,D3,615800.601,615800.601,616496.512,616621.845,616747.247,616997.688,616621.845,616942.190,320.3,None,0,2026-07-10T15:16:58.3148212+02:00
franc,1,1,117,V,0,slow,wide,,620311.157,620311.157,622009.742,622357.594,622733.266,623513.150,,,,None,0,2026-07-10T15:17:03.0344070+02:00
franc,1,1,118,VT,1,fast,wide,D5,625030.793,625030.793,625727.568,625852.506,625977.166,626227.922,625615.631,626046.974,431.3,None,0,2026-07-10T15:17:07.5448059+02:00
franc,1,1,119,V,0,fast,wide,,629541.345,629541.345,630237.744,630349.380,630488.429,630738.765,,,,None,0,2026-07-10T15:17:12.0562875+02:00
franc,1,1,120,V,0,fast,narrow,,634052.326,634052.326,634747.927,634873.424,634998.754,635249.413,,,,None,0,2026-07-10T15:17:16.5665991+02:00
franc,1,1,121,VT,1,slow,wide,D1,638562.764,638562.764,640261.456,640609.232,640985.175,641751.002,641751.002,642127.493,376.5,None,0,2026-07-10T15:17:21.6406975+02:00
franc,1,1,122,VT,1,slow,narrow,D7,643630.425,643630.425,645328.471,645676.604,646052.853,646818.704,643839.516,644215.142,375.6,None,0,2026-07-10T15:17:26.3544250+02:00
franc,1,1,123,T,1,slow,narrow,D6,648349.786,,,,,,649129.332,649463.851,334.5,None,0,2026-07-10T15:17:30.8649258+02:00
franc,1,1,124,VT,1,fast,narrow,D2,652861.158,652861.158,653557.903,653669.799,653807.775,654058.413,653807.775,654127.645,319.9,None,0,2026-07-10T15:17:35.3757440+02:00
franc,1,1,125,VT,1,fast,wide,D6,657371.930,657371.930,658067.414,658193.581,658317.888,658568.882,657831.386,658164.992,333.6,None,0,2026-07-10T15:17:39.8856613+02:00
franc,1,1,126,VT,1,slow,narrow,D5,661882.534,661882.534,663581.527,663929.239,664304.715,665070.940,663246.836,667854.564,4607.7,None,0,2026-07-10T15:17:47.3679945+02:00
franc,1,1,127,V,0,slow,wide,,669358.433,669358.433,671057.177,671405.111,671781.283,672546.989,,,,None,0,2026-07-10T15:17:52.0816762+02:00
franc,1,1,128,VT,1,slow,narrow,D3,674078.302,674078.302,675776.553,676124.547,676500.562,677280.156,676124.547,679006.529,2882.0,None,0,2026-07-10T15:17:58.5149549+02:00
franc,1,1,129,VT,1,fast,narrow,D3,680510.025,680510.025,681205.949,681331.133,681457.040,681707.188,681331.133,681638.075,306.9,None,0,2026-07-10T15:18:03.0253592+02:00
franc,1,1,130,V,0,fast,wide,,685021.459,685021.459,685717.487,685842.713,685968.092,686218.444,,,,None,0,2026-07-10T15:18:07.5358984+02:00
franc,1,1,131,T,1,slow,narrow,D7,689532.290,,,,,,689532.290,694195.443,4663.2,None,0,2026-07-10T15:18:13.7070077+02:00
franc,1,1,132,VT,1,slow,narrow,D1,695699.263,695699.263,697398.285,697746.053,698122.035,698887.667,698887.667,699180.073,292.4,None,0,2026-07-10T15:18:18.6883869+02:00
franc,1,1,133,VT,1,fast,wide,D5,700683.906,700683.906,701380.481,701505.876,701631.337,701881.729,701268.889,701589.455,320.6,None,0,2026-07-10T15:18:23.1991287+02:00
franc,1,1,134,VT,1,fast,narrow,D3,705196.196,705196.196,705904.831,706015.048,706140.422,706390.888,706015.048,706419.112,404.1,None,0,2026-07-10T15:18:27.7082488+02:00
franc,1,1,135,VT,1,fast,narrow,D7,709704.812,709704.812,710400.642,710526.029,710651.511,710901.937,709913.672,710289.588,375.9,None,0,2026-07-10T15:18:32.2195335+02:00
franc,1,1,136,VT,1,fast,narrow,D5,714215.236,714215.236,714911.692,715037.092,715162.053,715412.588,714799.894,715245.654,445.8,None,0,2026-07-10T15:18:36.7301051+02:00
franc,1,1,137,T,1,fast,wide,D2,718725.872,,,,,,719477.985,719811.871,333.9,None,0,2026-07-10T15:18:41.2406996+02:00
franc,1,1,138,T,1,fast,wide,D4,723236.913,,,,,,723738.427,724100.297,361.9,None,0,2026-07-10T15:18:45.7510626+02:00
franc,1,1,139,VT,1,fast,wide,D3,727747.624,727747.624,728443.799,728569.059,728694.197,728944.890,728569.059,728847.329,278.3,None,0,2026-07-10T15:18:50.2620013+02:00
franc,1,1,140,VT,1,fast,narrow,D1,732259.050,732259.050,732955.153,733080.799,733205.905,733456.773,733456.773,733720.698,263.9,None,0,2026-07-10T15:18:54.7740255+02:00
franc,1,2,1,V,0,slow,narrow,,747851.260,747851.260,749549.467,749897.606,750273.356,751039.155,,,,None,0,2026-07-10T15:19:10.5741982+02:00
franc,1,2,2,VT,1,slow,wide,D6,752570.411,752570.411,754269.165,754617.731,754993.091,755758.783,753545.151,753809.981,264.8,None,0,2026-07-10T15:19:15.2936415+02:00
franc,1,2,3,T,1,slow,narrow,D7,757290.272,,,,,,757290.272,761940.698,4650.4,None,0,2026-07-10T15:19:21.4532668+02:00
franc,1,2,4,VT,1,fast,wide,D7,763443.939,763443.939,764139.865,764265.654,764390.575,764641.115,763653.279,764014.840,361.6,None,0,2026-07-10T15:19:25.9585907+02:00
franc,1,2,5,T,1,slow,wide,D2,767953.975,,,,,,770182.064,770502.096,320.0,None,0,2026-07-10T15:19:30.4691655+02:00
franc,1,2,6,T,1,slow,narrow,D5,772465.302,,,,,,773635.099,774011.019,375.9,None,0,2026-07-10T15:19:34.9942108+02:00
franc,1,2,7,V,0,slow,wide,,776990.039,776990.039,778688.833,779036.677,779412.880,780179.005,,,,None,0,2026-07-10T15:19:39.7141500+02:00
franc,1,2,8,VT,1,fast,narrow,D1,781710.522,781710.522,782406.889,782531.641,782657.095,782908.073,782908.073,783256.485,348.4,None,0,2026-07-10T15:19:44.2246672+02:00
franc,1,2,9,V,0,slow,narrow,,786220.902,786220.902,787919.913,788267.816,788644.245,789408.954,,,,None,0,2026-07-10T15:19:48.9439514+02:00
franc,1,2,10,VT,1,slow,narrow,D2,790940.637,790940.637,792639.409,792987.657,793363.698,794129.630,793363.698,793614.552,250.9,None,0,2026-07-10T15:19:53.6643620+02:00
franc,1,2,11,T,1,fast,narrow,D6,795660.397,,,,,,795925.272,796287.648,362.4,None,0,2026-07-10T15:19:58.1747588+02:00
franc,1,2,12,V,1,fast,wide,,800171.390,800171.390,800867.410,800992.687,801118.001,801368.417,,800630.623,,None,0,2026-07-10T15:20:02.6852795+02:00
franc,1,2,13,VT,1,fast,narrow,D2,804681.701,804681.701,805378.047,805503.433,805628.921,805879.391,805628.921,805879.391,250.5,None,0,2026-07-10T15:20:07.1966430+02:00
franc,1,2,14,VT,1,fast,wide,D4,809192.609,809192.609,809888.912,810014.676,810140.138,810390.081,809888.912,810223.087,334.2,None,0,2026-07-10T15:20:11.7070809+02:00
franc,1,2,15,VT,1,slow,wide,D7,813703.172,813703.172,815401.216,815749.516,816125.605,816891.423,813911.135,814538.036,626.9,None,0,2026-07-10T15:20:16.4274024+02:00
franc,1,2,16,VT,1,slow,narrow,D4,818423.353,818423.353,820121.196,820469.211,820845.044,821611.275,820121.196,821471.859,1350.7,None,0,2026-07-10T15:20:21.1464863+02:00
franc,1,2,17,VT,1,fast,wide,D3,823143.089,823143.089,823839.117,823964.208,824090.131,824364.772,823964.208,824243.309,279.1,None,0,2026-07-10T15:20:25.6586853+02:00
franc,1,2,18,VT,1,slow,wide,D5,827653.268,827653.268,829350.234,829699.569,830074.240,830853.846,829015.919,829364.363,348.4,None,0,2026-07-10T15:20:30.3757389+02:00
franc,1,2,19,T,1,fast,narrow,D7,832371.712,,,,,,832371.712,837161.423,4789.7,None,0,2026-07-10T15:20:36.6745983+02:00
franc,1,2,20,T,1,fast,narrow,D1,838664.893,,,,,,839667.073,840029.271,362.2,None,0,2026-07-10T15:20:41.1798030+02:00
franc,1,2,21,VT,1,fast,wide,D3,843175.942,843175.942,843871.695,843997.045,844122.513,844373.176,843997.045,844247.627,250.6,None,0,2026-07-10T15:20:45.6902397+02:00
franc,1,2,22,T,1,fast,narrow,D3,847686.070,,,,,,848299.273,848744.913,445.6,None,0,2026-07-10T15:20:50.2016603+02:00
franc,1,2,23,VT,1,fast,narrow,D4,852197.508,852197.508,852893.429,853018.952,853143.895,853394.300,852893.429,852726.397,-167.0,None,0,2026-07-10T15:20:54.7117514+02:00
franc,1,2,24,VT,1,slow,wide,D3,856707.668,856707.668,858406.766,858754.604,859130.383,859909.731,858754.604,859630.784,876.2,None,0,2026-07-10T15:20:59.4314693+02:00
franc,1,2,25,V,0,fast,wide,,861427.466,861427.466,862123.947,862248.841,862374.221,862625.274,,,,None,0,2026-07-10T15:21:03.9423313+02:00
franc,1,2,26,VT,1,fast,narrow,D5,865938.699,865938.699,866634.462,866759.695,866885.024,867135.370,866522.965,866857.177,334.2,None,0,2026-07-10T15:21:08.4531292+02:00
franc,1,2,27,V,0,fast,narrow,,870449.530,870449.530,871144.908,871270.644,871395.788,871646.332,,,,None,0,2026-07-10T15:21:12.9642228+02:00
franc,1,2,28,T,1,slow,wide,D7,874956.945,,,,,,874956.945,878997.329,4040.4,None,0,2026-07-10T15:21:18.5054645+02:00
franc,1,2,29,V,0,slow,narrow,,880500.654,880500.654,882199.215,882547.471,882923.172,883689.228,,,,None,0,2026-07-10T15:21:23.2246939+02:00
franc,1,2,30,V,0,slow,narrow,,885220.178,885220.178,886919.527,887266.962,887643.340,888408.600,,,,None,0,2026-07-10T15:21:27.9440103+02:00
franc,1,2,31,V,0,slow,wide,,889939.660,889939.660,891638.291,891986.665,892362.081,893127.810,,,,None,0,2026-07-10T15:21:32.6635474+02:00
franc,1,2,32,T,1,slow,narrow,D1,894659.333,,,,,,897666.998,899602.460,1935.5,None,0,2026-07-10T15:21:39.1150510+02:00
franc,1,2,33,VT,1,slow,narrow,D7,901106.387,901106.387,902804.482,903152.833,903528.568,904294.654,901314.494,901704.759,390.3,None,0,2026-07-10T15:21:43.8295095+02:00
franc,1,2,34,T,1,fast,narrow,D2,905825.408,,,,,,906576.797,906869.142,292.3,None,0,2026-07-10T15:21:48.3396574+02:00
franc,1,2,35,T,1,fast,wide,D4,910336.467,,,,,,910837.436,911157.639,320.2,None,0,2026-07-10T15:21:52.8507405+02:00
franc,1,2,36,VT,1,fast,wide,D1,914846.584,914846.584,915542.493,915668.146,915793.498,916043.877,916043.877,916545.551,501.7,None,0,2026-07-10T15:21:57.3611482+02:00
franc,1,2,37,V,1,fast,narrow,,919357.901,919357.901,920053.903,920179.412,920304.449,920554.862,,920554.862,,None,0,2026-07-10T15:22:01.8710066+02:00
franc,1,2,38,VT,1,fast,wide,D7,923868.031,923868.031,924564.062,924689.238,924814.693,925065.347,924076.866,924424.653,347.8,None,0,2026-07-10T15:22:06.3812425+02:00
franc,1,2,39,VT,1,slow,wide,D4,928378.795,928378.795,930077.181,930425.390,930801.190,931566.953,930077.181,930551.076,473.9,None,0,2026-07-10T15:22:11.1011630+02:00
franc,1,2,40,VT,1,slow,narrow,D1,933098.371,933098.371,934796.465,935144.278,935520.463,936300.113,936300.113,936606.214,306.1,None,0,2026-07-10T15:22:16.1133261+02:00
franc,1,2,41,VT,1,slow,narrow,D5,938110.204,938110.204,939808.698,940156.777,940532.736,941298.432,939474.512,939823.055,348.5,None,0,2026-07-10T15:22:20.8334552+02:00
franc,1,2,42,T,1,fast,wide,D3,942829.713,,,,,,943456.254,943804.609,348.4,None,0,2026-07-10T15:22:25.3438859+02:00
franc,1,2,43,VT,1,slow,wide,D5,947340.734,947340.734,949038.753,949387.246,949763.392,950528.942,948705.550,949094.862,389.3,None,0,2026-07-10T15:22:30.0635080+02:00
franc,1,2,44,V,0,slow,wide,,952060.298,952060.298,953759.130,954107.145,954483.014,955248.909,,,,None,0,2026-07-10T15:22:34.7824540+02:00
franc,1,2,45,T,1,slow,wide,D1,956780.404,,,,,,959787.566,956794.611,-2993.0,None,0,2026-07-10T15:22:39.2946613+02:00
franc,1,2,46,VT,1,fast,narrow,D4,961290.930,961290.930,961986.600,962112.334,962237.571,962487.968,961986.600,962265.545,278.9,None,0,2026-07-10T15:22:43.8038416+02:00
franc,1,2,47,VT,1,slow,wide,D1,965801.894,965801.894,967500.315,967848.560,968223.827,969003.186,969003.186,969420.944,417.8,None,0,2026-07-10T15:22:48.9316269+02:00
franc,1,2,48,VT,1,slow,wide,D2,970924.446,970924.446,972623.296,972971.418,973347.182,974113.033,973347.182,973667.079,319.9,None,0,2026-07-10T15:22:53.6469706+02:00
franc,1,2,49,VT,1,slow,narrow,D5,975644.343,975644.343,977342.713,977687.143,978066.460,978832.481,977008.621,977454.255,445.6,None,0,2026-07-10T15:22:58.3660447+02:00
franc,1,2,50,VT,1,slow,wide,D4,980364.201,980364.201,982062.225,982410.229,982786.236,983565.298,982062.225,982424.248,362.0,None,0,2026-07-10T15:23:03.0851650+02:00
franc,1,2,51,VT,1,slow,narrow,D7,985083.312,985083.312,986781.997,987130.337,987505.764,988271.406,985292.074,985668.034,376.0,None,0,2026-07-10T15:23:07.8044099+02:00
franc,1,2,52,VT,1,slow,wide,D2,989802.788,989802.788,991501.461,991849.720,992225.447,992991.107,992225.447,996986.729,4761.3,None,0,2026-07-10T15:23:16.4971051+02:00
franc,1,2,53,VT,1,fast,wide,D5,998490.200,998490.200,999186.289,999311.838,999437.048,999687.877,999074.818,999409.199,334.4,None,0,2026-07-10T15:23:21.0021280+02:00
franc,1,2,54,T,1,fast,wide,D7,1003000.874,,,,,,1003000.874,1006787.265,3786.4,None,0,2026-07-10T15:23:26.2973824+02:00
franc,1,2,55,VT,1,fast,wide,D1,1008291.513,1008291.513,1008987.561,1009113.131,1009238.202,1009488.624,1009488.624,1009823.269,334.6,None,0,2026-07-10T15:23:30.8033800+02:00
franc,1,2,56,VT,1,slow,wide,D3,1012802.469,1012802.469,1014500.544,1014849.006,1015225.227,1015990.150,1014849.006,1015183.105,334.1,None,0,2026-07-10T15:23:35.5237310+02:00
franc,1,2,57,V,0,slow,wide,,1017522.098,1017522.098,1019220.039,1019568.246,1019944.189,1020710.042,,,,None,0,2026-07-10T15:23:40.2425988+02:00
franc,1,2,58,V,0,fast,narrow,,1022241.605,1022241.605,1022937.209,1023062.879,1023188.359,1023439.225,,,,None,0,2026-07-10T15:23:44.7533181+02:00
franc,1,2,59,VT,1,fast,narrow,D7,1026752.902,1026752.902,1027448.286,1027573.870,1027698.682,1027949.679,1026960.908,1027253.479,292.6,None,0,2026-07-10T15:23:49.2642148+02:00
franc,1,2,60,VT,1,slow,narrow,D3,1031263.042,1031263.042,1032961.470,1033309.825,1033685.634,1034451.844,1033309.825,1034214.740,904.9,None,0,2026-07-10T15:23:53.9839441+02:00
franc,1,2,61,V,0,slow,wide,,1035983.143,1035983.143,1037681.040,1038029.055,1038405.030,1039184.116,,,,None,0,2026-07-10T15:23:58.7021190+02:00
franc,1,2,62,VT,1,fast,wide,D1,1040702.168,1040702.168,1041398.307,,1041744.248,1041899.223,1041899.223,1042233.794,334.6,None,0,2026-07-10T15:24:03.2136729+02:00
franc,1,2,63,VT,1,fast,wide,D2,1045213.184,1045213.184,1045909.976,1046034.965,1046160.814,1046410.739,1046160.814,1046467.353,306.5,None,0,2026-07-10T15:24:07.7246006+02:00
franc,1,2,64,VT,1,slow,wide,D6,1049724.042,1049724.042,1051422.023,1051770.294,1052146.455,1052926.019,1050698.553,1051228.524,530.0,None,0,2026-07-10T15:24:12.4437092+02:00
franc,1,2,65,VT,1,fast,wide,D3,1054443.635,1054443.635,1055140.020,1055264.955,1055390.589,1055641.107,1055264.955,1055655.573,390.6,None,0,2026-07-10T15:24:16.9549160+02:00
franc,1,2,66,T,1,slow,narrow,D3,1058954.400,,,,,,1060806.050,1061196.494,390.4,None,0,2026-07-10T15:24:21.4792310+02:00
franc,1,2,67,VT,1,fast,wide,D2,1063479.719,1063479.719,1064176.337,1064287.691,1064426.464,1064677.051,1064426.464,1064733.476,307.0,None,0,2026-07-10T15:24:25.9910955+02:00
franc,1,2,68,VT,1,slow,narrow,D2,1067989.939,1067989.939,1069687.896,1070036.065,1070412.641,1071178.268,1070412.641,1071847.063,1434.4,None,0,2026-07-10T15:24:31.3573326+02:00
franc,1,2,69,T,1,fast,wide,D5,1073349.784,,,,,,1073739.844,1074157.237,417.4,None,0,2026-07-10T15:24:35.8601047+02:00
franc,1,2,70,VT,1,fast,narrow,D6,1077860.257,1077860.257,1078556.470,1078668.182,1078808.189,1079058.201,1078319.854,1078696.145,376.3,None,0,2026-07-10T15:24:40.3710142+02:00
franc,1,2,71,VT,1,fast,narrow,D1,1082371.864,1082371.864,1083067.193,1083192.672,1083317.758,1083567.719,1083567.719,1086687.807,3120.1,None,0,2026-07-10T15:24:46.1967977+02:00
franc,1,2,72,V,0,fast,narrow,,1088190.322,1088190.322,1088886.422,1089011.962,1089137.299,1089387.606,,,,None,0,2026-07-10T15:24:50.7007477+02:00
franc,1,2,73,V,0,fast,wide,,1092701.962,1092701.962,1093398.292,1093510.016,1093648.951,1093900.233,,,,None,0,2026-07-10T15:24:55.2128315+02:00
franc,1,2,74,V,0,fast,wide,,1097213.107,1097213.107,1097908.975,1098033.943,1098159.570,1098410.053,,,,None,0,2026-07-10T15:24:59.7232363+02:00
franc,1,2,75,V,0,fast,narrow,,1101724.614,1101724.614,1102419.450,1102531.505,1102670.698,1102921.238,,,,None,0,2026-07-10T15:25:04.2345742+02:00
franc,1,2,76,VT,1,slow,wide,D3,1106234.683,1106234.683,1107933.148,1108281.170,1108657.115,1109422.789,1108281.170,1111469.878,3188.7,None,0,2026-07-10T15:25:10.9799126+02:00
franc,1,2,77,V,0,slow,wide,,1112972.723,1112972.723,1114671.817,1115019.349,1115395.468,1116160.847,,,,None,0,2026-07-10T15:25:15.6916909+02:00
franc,1,2,78,VT,1,slow,narrow,D6,1117692.719,1117692.719,1119390.117,1119739.468,1120114.581,1120894.231,1118667.324,1119002.146,334.8,None,0,2026-07-10T15:25:20.4110123+02:00
franc,1,2,79,VT,1,fast,wide,D4,1122411.786,1122411.786,1123107.844,1123232.872,1123358.440,1123608.846,1123107.844,1123386.847,279.0,None,0,2026-07-10T15:25:24.9206877+02:00
franc,1,2,80,VT,1,slow,narrow,D1,1126921.767,1126921.767,1128619.953,1128967.718,1129343.663,1130123.438,1130123.438,1130457.682,334.2,None,0,2026-07-10T15:25:29.9612224+02:00
franc,1,2,81,VT,1,fast,narrow,D7,1131961.077,1131961.077,1132657.515,1132783.069,1132908.275,1133158.909,1132170.409,1132587.637,417.2,None,0,2026-07-10T15:25:34.4708849+02:00
franc,1,2,82,VT,1,fast,narrow,D3,1136472.198,1136472.198,1137167.885,1137293.429,1137418.846,1137669.407,1137293.429,1137488.774,195.3,None,0,2026-07-10T15:25:38.9813997+02:00
franc,1,2,83,VT,1,fast,narrow,D3,1140982.954,1140982.954,1141679.213,1141804.537,1141929.760,1142180.119,1141804.537,1141442.455,-362.1,None,0,2026-07-10T15:25:43.4926271+02:00
franc,1,2,84,VT,1,slow,wide,D7,1145493.866,1145493.866,1147192.228,1147527.849,1147916.332,1148681.998,1145702.639,1148431.512,2728.9,None,0,2026-07-10T15:25:48.2115697+02:00
franc,1,2,85,V,0,slow,narrow,,1150213.492,1150213.492,1151911.534,1152260.141,1152635.746,1153401.820,,,,None,0,2026-07-10T15:25:52.9319703+02:00
franc,1,2,86,T,1,fast,narrow,D4,1154932.678,,,,,,1155433.860,1155754.842,321.0,None,0,2026-07-10T15:25:57.4424634+02:00
franc,1,2,87,VT,1,slow,narrow,D7,1159443.846,1159443.846,1161142.435,1161490.744,1161866.638,1162632.303,1159652.320,1160000.446,348.1,None,0,2026-07-10T15:26:02.1628637+02:00
franc,1,2,88,T,1,fast,wide,D6,1164163.747,,,,,,1164428.391,1164720.941,292.5,None,0,2026-07-10T15:26:06.6734458+02:00
franc,1,2,89,VT,1,fast,narrow,D3,1168675.506,1168675.506,1169371.619,1169496.450,1169621.776,1169872.289,1169496.450,1168995.657,-500.8,None,0,2026-07-10T15:26:11.1838913+02:00
franc,1,2,90,V,0,fast,wide,,1173186.044,1173186.044,1173882.154,1174007.064,1174132.425,1174383.140,,,,None,0,2026-07-10T15:26:15.6940681+02:00
franc,1,2,91,VT,1,slow,wide,D1,1177695.994,1177695.994,1179394.594,1179742.718,1180118.581,1180898.235,1180898.235,1181678.160,779.9,None,0,2026-07-10T15:26:21.1856807+02:00
franc,1,2,92,VT,1,slow,narrow,D4,1183181.146,1183181.146,1184879.654,1185227.834,1185603.665,1186369.134,1184879.654,1185353.534,473.9,None,0,2026-07-10T15:26:25.8979018+02:00
franc,1,2,93,VT,1,slow,narrow,D6,1187900.008,1187900.008,1189599.393,1190132.676,1190324.026,1191088.133,1188874.747,1192675.717,3801.0,None,0,2026-07-10T15:26:32.1826199+02:00
franc,1,2,94,VT,1,fast,narrow,D2,1194179.498,1194179.498,1194875.276,1195000.379,1195126.002,1195376.636,1195126.002,1195474.483,348.5,None,0,2026-07-10T15:26:36.6878409+02:00
franc,1,2,95,VT,1,slow,wide,D7,1198690.447,1198690.447,1200389.117,1200736.468,1201112.609,1201878.495,1198899.123,1199205.719,306.6,None,0,2026-07-10T15:26:41.4085345+02:00
franc,1,2,96,V,0,fast,wide,,1203409.372,1203409.372,1204105.627,1204230.921,1204356.120,1204607.211,,,,None,0,2026-07-10T15:26:45.9182773+02:00
franc,1,2,97,VT,1,fast,wide,D6,1207920.322,1207920.322,1208616.238,1208728.031,1208866.844,1209117.680,1208379.593,1208728.031,348.4,None,0,2026-07-10T15:26:50.4288023+02:00
franc,1,2,98,V,0,slow,narrow,,1212431.035,1212431.035,1214130.278,1214478.353,1214854.469,1215619.908,,,,None,0,2026-07-10T15:26:55.1490799+02:00
franc,1,2,99,VT,1,slow,narrow,D3,1217151.417,1217151.417,1218849.126,1219197.510,1219573.892,1220352.927,1219197.510,1219545.814,348.3,None,0,2026-07-10T15:26:59.8683743+02:00
franc,1,2,100,T,1,fast,wide,D2,1221870.020,,,,,,1222621.969,1222969.620,347.7,None,0,2026-07-10T15:27:04.3788432+02:00
franc,1,2,101,V,1,slow,wide,,1226381.611,1226381.611,1228079.649,1228428.016,1228803.699,1229570.119,,1229249.989,,None,0,2026-07-10T15:27:09.0987463+02:00
franc,1,2,102,VT,1,slow,narrow,D2,1231101.344,1231101.344,1232799.640,1233147.857,1233523.973,1234289.964,1233523.973,1233788.356,264.4,None,0,2026-07-10T15:27:13.8185126+02:00
franc,1,2,103,T,1,slow,narrow,D2,1235821.091,,,,,,1238048.054,1238521.431,473.4,None,0,2026-07-10T15:27:18.3289166+02:00
franc,1,2,104,VT,1,fast,narrow,D5,1240331.244,1240331.244,1241027.226,1241152.609,1241277.946,1241528.582,1240915.655,1241528.582,612.9,None,0,2026-07-10T15:27:22.8393364+02:00
franc,1,2,105,VT,1,fast,wide,D6,1244842.176,1244842.176,1245537.905,1245663.182,1245788.816,1246039.463,1245301.125,1245649.589,348.5,None,0,2026-07-10T15:27:27.3497892+02:00
franc,1,2,106,T,1,slow,wide,D6,1249366.509,,,,,,1250146.233,1251273.919,1127.7,None,0,2026-07-10T15:27:31.8748073+02:00
franc,1,2,107,VT,1,fast,wide,D7,1253877.020,1253877.020,1254573.494,1254698.838,1254823.960,1255074.523,1254085.993,1254238.985,153.0,None,0,2026-07-10T15:27:36.3851018+02:00
franc,1,2,108,T,1,slow,narrow,D6,1258387.736,,,,,,1259167.201,1259613.439,446.2,None,0,2026-07-10T15:27:40.8965205+02:00
franc,1,2,109,VT,1,slow,wide,D2,1262898.380,1262898.380,1264596.973,1264944.960,1265320.915,1266087.031,1265320.915,1265613.570,292.7,None,0,2026-07-10T15:27:45.6151772+02:00
franc,1,2,110,VT,1,fast,narrow,D7,1267618.688,1267618.688,1268314.760,1268439.906,1268565.239,1268815.885,1267828.007,1268189.436,361.4,None,0,2026-07-10T15:27:50.1265809+02:00
franc,1,2,111,V,0,slow,narrow,,1272129.588,1272129.588,1273828.309,1274176.665,1274552.101,1275318.105,,,,None,0,2026-07-10T15:27:54.8476035+02:00
franc,1,2,112,T,1,slow,narrow,D4,1276848.505,,,,,,1278353.770,1278657.866,304.1,None,0,2026-07-10T15:27:59.3565776+02:00
franc,1,2,113,VT,1,slow,narrow,D5,1281359.040,1281359.040,1283057.683,1283405.831,1283781.362,1284547.209,1282724.228,1283030.259,306.0,None,0,2026-07-10T15:28:04.0755446+02:00
franc,1,2,114,VT,1,slow,narrow,D3,1286078.768,1286078.768,1287777.238,1288125.405,1288501.647,1289267.311,1288125.405,1288446.939,321.5,None,0,2026-07-10T15:28:08.7952331+02:00
franc,1,2,115,VT,1,fast,wide,D5,1290799.122,1290799.122,1291495.297,1291620.874,1291745.827,1291995.937,1291383.586,1291648.238,264.7,None,0,2026-07-10T15:28:13.3063360+02:00
franc,1,2,116,VT,1,fast,wide,D2,1295309.951,1295309.951,1296005.830,1296130.991,1296256.562,1296507.251,1296256.562,1296507.251,250.7,None,0,2026-07-10T15:28:17.8184370+02:00
franc,1,2,117,VT,1,slow,wide,D1,1299820.267,1299820.267,1301518.858,1301867.570,1302243.300,1303008.820,1303008.820,1300823.544,-2185.3,None,0,2026-07-10T15:28:22.5371025+02:00
franc,1,2,118,T,1,fast,narrow,D5,1304540.803,,,,,,1304929.977,1305306.169,376.2,None,0,2026-07-10T15:28:27.0476575+02:00
franc,1,2,119,VT,1,slow,narrow,D4,1309050.450,1309050.450,1310749.467,1311096.721,1311472.984,1312238.669,1310749.467,1309830.646,-918.8,None,0,2026-07-10T15:28:31.7674237+02:00
franc,1,2,120,V,0,fast,wide,,1313769.977,1313769.977,1314466.011,1314591.496,1314716.387,1314967.041,,,,None,0,2026-07-10T15:28:36.2779398+02:00
franc,1,2,121,T,1,fast,wide,D1,1318280.993,,,,,,1319282.792,1322235.569,2952.8,None,0,2026-07-10T15:28:41.7417530+02:00
franc,1,2,122,VT,1,slow,narrow,D6,1323739.409,1323739.409,1325437.496,1325785.706,1326161.593,1326940.638,1324713.607,1325062.588,349.0,None,0,2026-07-10T15:28:46.4551962+02:00
franc,1,2,123,VT,1,fast,narrow,D6,1328457.848,1328457.848,1329153.841,1329279.546,1329404.784,1329654.831,1328917.361,1329279.546,362.2,None,0,2026-07-10T15:28:50.9652926+02:00
franc,1,2,124,VT,1,fast,narrow,D2,1332968.374,1332968.374,1333664.435,1333790.194,1333915.407,1334165.472,1333915.407,1334250.100,334.7,None,0,2026-07-10T15:28:55.4757864+02:00
franc,1,2,125,VT,1,slow,narrow,D1,1337479.615,1337479.615,1339319.559,1339525.892,1339902.148,1340667.472,1340667.472,1339790.673,-876.8,None,0,2026-07-10T15:29:00.1957392+02:00
franc,1,2,126,VT,1,slow,wide,D4,1342198.605,1342198.605,1343897.225,1344245.288,1344621.182,1345387.002,1343897.225,1344343.746,446.5,None,0,2026-07-10T15:29:04.9149385+02:00
franc,1,2,127,VT,1,fast,narrow,D4,1346918.427,1346918.427,1347614.622,1347739.889,1347864.884,1348115.843,1347614.622,1347907.563,292.9,None,0,2026-07-10T15:29:09.4262282+02:00
franc,1,2,128,VT,1,fast,narrow,D5,1351429.666,1351429.666,1352125.156,1352250.895,1352376.185,1352626.296,1352013.953,1352404.176,390.2,None,0,2026-07-10T15:29:13.9360061+02:00
franc,1,2,129,T,1,slow,wide,D4,1355939.977,,,,,,1357443.574,1357666.468,222.9,None,0,2026-07-10T15:29:18.4477083+02:00
franc,1,2,130,T,1,slow,wide,D3,1360451.113,,,,,,1362302.375,1362720.133,417.8,None,0,2026-07-10T15:29:22.9723019+02:00
franc,1,2,131,VT,1,slow,wide,D5,1364976.225,1364976.225,1366674.865,1367022.821,1367398.831,1368164.237,1366340.671,1366660.847,320.2,None,0,2026-07-10T15:29:27.6931386+02:00
franc,1,2,132,VT,1,fast,wide,D4,1369696.127,1369696.127,1370391.657,1370517.090,1370642.935,1370893.056,1370391.657,1370683.917,292.3,None,0,2026-07-10T15:29:32.2027447+02:00
franc,1,2,133,T,1,slow,wide,D5,1374205.613,,,,,,1375375.021,1378285.262,2910.2,None,0,2026-07-10T15:29:37.7877590+02:00
franc,1,2,134,VT,1,fast,narrow,D6,1379788.281,1379788.281,1380484.645,1380609.671,1380735.310,1380985.917,1380247.974,1380526.728,278.8,None,0,2026-07-10T15:29:42.2959964+02:00
franc,1,2,135,VT,1,fast,wide,D6,1384299.283,1384299.283,1384995.508,1385121.022,1385246.710,1385497.093,1384759.009,1386444.662,1685.7,None,0,2026-07-10T15:29:46.8075151+02:00
franc,1,2,136,VT,1,fast,wide,D5,1388810.710,1388810.710,1389506.985,1389632.893,1389757.357,1390008.720,1389395.745,1389674.384,278.6,None,0,2026-07-10T15:29:51.3179840+02:00
franc,1,2,137,VT,1,fast,narrow,D1,1393321.844,1393321.844,1394018.551,1394143.869,1394268.856,1394519.485,1394519.485,1394797.641,278.2,None,0,2026-07-10T15:29:55.8296172+02:00
franc,1,2,138,VT,1,slow,wide,D6,1397831.974,1397831.974,1399531.053,1399879.105,1400254.868,1401020.859,1398806.914,1399154.943,348.0,None,0,2026-07-10T15:30:00.5488774+02:00
franc,1,2,139,V,1,fast,narrow,,1402551.839,1402551.839,1403247.983,1403372.949,1403498.813,1403748.943,,1403623.923,,None,0,2026-07-10T15:30:05.0579422+02:00
franc,1,2,140,V,0,fast,narrow,,1407061.869,1407061.869,1407758.023,1407882.926,1408008.401,1408258.894,,,,None,0,2026-07-10T15:30:09.5686615+02:00
franc,1,3,1,V,0,slow,narrow,,1438177.377,1438177.377,1439876.073,1440224.335,1440600.202,1441365.913,,,,None,0,2026-07-10T15:30:40.8930966+02:00
franc,1,3,2,VT,1,fast,narrow,D5,1442897.370,1442897.370,1443593.409,1443718.510,1443843.734,1444094.499,1443481.628,1443816.289,334.7,None,0,2026-07-10T15:30:45.4040338+02:00
franc,1,3,3,VT,1,fast,narrow,D2,1447407.998,1447407.998,1448104.379,1448229.689,1448354.553,1448605.278,1448354.553,1448689.010,334.5,None,0,2026-07-10T15:30:49.9146841+02:00
franc,1,3,4,T,1,slow,wide,D5,1451918.484,,,,,,1453087.989,1453338.866,250.9,None,0,2026-07-10T15:30:54.4396192+02:00
franc,1,3,5,T,1,fast,narrow,D7,1456443.626,,,,,,1456443.626,1460842.666,4399.0,None,0,2026-07-10T15:31:00.3432735+02:00
franc,1,3,6,VT,1,slow,wide,D3,1462346.390,1462346.390,1464044.983,1464392.686,1464769.001,1465548.344,1464392.686,1464685.186,292.5,None,0,2026-07-10T15:31:05.0617290+02:00
franc,1,3,7,VT,1,fast,narrow,D3,1467065.833,1467065.833,1467762.274,1467887.328,1468012.684,1468263.311,1467887.328,1468040.557,153.2,None,0,2026-07-10T15:31:09.5723735+02:00
franc,1,3,8,VT,1,fast,wide,D4,1471576.515,1471576.515,1472272.579,1472397.989,1472523.560,1472773.908,1472272.579,1472523.560,251.0,None,0,2026-07-10T15:31:14.0797131+02:00
franc,1,3,9,VT,1,slow,narrow,D2,1476085.566,1476085.566,1477785.915,1478133.627,1478509.785,1479275.299,1478509.785,1478788.231,278.4,None,0,2026-07-10T15:31:18.8031185+02:00
franc,1,3,10,VT,1,slow,narrow,D1,1480806.896,1480806.896,1482505.840,1482853.519,1483229.261,1483994.938,1483994.938,1486919.295,2924.4,None,0,2026-07-10T15:31:26.4198449+02:00
franc,1,3,11,VT,1,slow,narrow,D4,1488422.389,1488422.389,1490198.409,1490468.704,1490845.205,1491610.811,1490198.409,1490468.704,270.3,None,0,2026-07-10T15:31:31.1380763+02:00
franc,1,3,12,VT,1,fast,narrow,D7,1493142.244,1493142.244,1493838.290,1493963.700,1494088.740,1494339.403,1493351.276,1493754.384,403.1,None,0,2026-07-10T15:31:35.6488522+02:00
franc,1,3,13,V,0,fast,wide,,1497652.529,1497652.529,1498349.082,1498474.001,1498599.541,1498850.102,,,,None,0,2026-07-10T15:31:40.1599609+02:00
franc,1,3,14,VT,1,fast,wide,D3,1502163.753,1502163.753,1502859.518,1502985.172,1503110.096,1503360.623,1502985.172,1503221.758,236.6,None,0,2026-07-10T15:31:44.6700298+02:00
franc,1,3,15,VT,1,fast,wide,D2,1506674.696,1506674.696,1507370.300,1507495.969,1507622.125,1507871.376,1507622.125,1507885.357,263.2,None,0,2026-07-10T15:31:49.1802621+02:00
franc,1,3,16,VT,1,fast,wide,D1,1511185.008,1511185.008,1511880.883,1512006.667,1512131.803,1512382.256,1512382.256,1512646.733,264.5,None,0,2026-07-10T15:31:53.6925642+02:00
franc,1,3,17,VT,1,fast,narrow,D7,1515696.672,1515696.672,1516393.596,1516504.790,1516643.682,1516894.216,1515906.139,1516212.170,306.0,None,0,2026-07-10T15:31:58.2029092+02:00
franc,1,3,18,VT,1,fast,wide,D4,1520207.744,1520207.744,1520903.539,1521028.951,1521154.221,1521404.717,1520903.539,1521251.727,348.2,None,0,2026-07-10T15:32:02.7134885+02:00
franc,1,3,19,VT,1,slow,narrow,D5,1524717.810,1524717.810,1526416.585,1526764.506,1527140.472,1527906.076,1526082.703,1525177.524,-905.2,None,0,2026-07-10T15:32:07.4332270+02:00
franc,1,3,20,V,0,slow,wide,,1529437.946,1529437.946,1531135.030,1531483.707,1531860.157,1532625.304,,,,None,0,2026-07-10T15:32:12.1527471+02:00
franc,1,3,21,VT,1,fast,narrow,D1,1534156.875,1534156.875,1534852.947,1534977.840,1535103.545,1535354.206,1535354.206,1535660.682,306.5,None,0,2026-07-10T15:32:16.6628926+02:00
franc,1,3,22,VT,1,fast,narrow,D7,1538667.549,1538667.549,1539363.781,1539489.055,1539614.151,1539864.507,1538876.418,1539154.603,278.2,None,0,2026-07-10T15:32:21.1731503+02:00
franc,1,3,23,V,1,slow,wide,,1543178.562,1543178.562,1544877.256,1545225.670,1545601.181,1546366.824,,1544083.624,,None,0,2026-07-10T15:32:25.8934485+02:00
franc,1,3,24,VT,1,slow,wide,D3,1547897.969,1547897.969,1549596.177,1549944.003,1550320.132,1551085.890,1549944.003,1550222.373,278.4,None,0,2026-07-10T15:32:30.6127497+02:00
franc,1,3,25,VT,1,slow,narrow,D4,1552616.536,1552616.536,1554315.800,1554664.125,1555039.697,1555805.714,1554315.800,1554552.400,236.6,None,0,2026-07-10T15:32:35.3325367+02:00
franc,1,3,26,VT,1,fast,wide,D2,1557337.264,1557337.264,1558033.415,1558158.998,1558284.351,1558535.263,1558284.351,1560442.762,2158.4,None,0,2026-07-10T15:32:39.9461860+02:00
franc,1,3,27,VT,1,slow,wide,D7,1561945.907,1561945.907,1563644.082,1563991.856,1564367.957,1565133.514,1562154.192,1562460.548,306.4,None,0,2026-07-10T15:32:44.6602271+02:00
franc,1,3,28,VT,1,fast,wide,D5,1566664.559,1566664.559,1567361.051,1567486.708,1567611.389,1567882.252,1567249.603,1567639.462,389.9,None,0,2026-07-10T15:32:49.1711344+02:00
franc,1,3,29,VT,1,fast,wide,D6,1571175.370,1571175.370,1571871.157,1571996.575,1572122.098,1572372.447,1571634.649,1571940.785,306.1,None,0,2026-07-10T15:32:53.6817002+02:00
franc,1,3,30,V,0,fast,wide,,1575686.345,1575686.345,1576381.882,1576507.325,1576632.661,1576883.379,,,,None,0,2026-07-10T15:32:58.1925305+02:00
franc,1,3,31,VT,1,slow,narrow,D5,1580196.954,1580196.954,1581895.354,1582243.426,1582619.312,1583398.438,1581560.938,1581881.728,320.8,None,0,2026-07-10T15:33:02.9108733+02:00
franc,1,3,32,V,1,slow,wide,,1584916.736,1584916.736,1586615.490,1586963.652,1587339.025,1588105.515,,1587464.583,,None,0,2026-07-10T15:33:07.6320755+02:00
franc,1,3,33,VT,1,fast,narrow,D4,1589636.220,1589636.220,1590332.281,1590444.270,1590583.835,1590833.021,1590332.281,1590680.335,348.1,None,0,2026-07-10T15:33:12.1425229+02:00
franc,1,3,34,VT,1,fast,wide,D1,1594146.763,1594146.763,1594842.988,1594968.222,1595093.614,1595344.273,1595344.273,1600523.447,5179.2,None,0,2026-07-10T15:33:20.0279278+02:00
franc,1,3,35,V,0,fast,narrow,,1602026.292,1602026.292,1602722.760,1602847.823,1602973.597,1603223.765,,,,None,0,2026-07-10T15:33:24.5333565+02:00
franc,1,3,36,VT,1,slow,wide,D6,1606537.063,1606537.063,1608236.059,1608583.947,1608960.120,1609726.125,1607512.253,1607790.389,278.1,None,0,2026-07-10T15:33:29.2523422+02:00
franc,1,3,37,VT,1,slow,wide,D7,1611256.945,1611256.945,1612955.285,1613303.417,1613679.487,1614458.936,1611465.886,1611827.923,362.0,None,0,2026-07-10T15:33:33.9724374+02:00
franc,1,3,38,VT,1,fast,wide,D3,1615976.158,1615976.158,1616672.618,1616797.603,1616923.592,1617173.770,1616797.603,1617048.472,250.9,None,0,2026-07-10T15:33:38.4825054+02:00
franc,1,3,39,T,1,fast,narrow,D3,1620487.450,,,,,,1621113.829,1621405.777,291.9,None,0,2026-07-10T15:33:42.9934264+02:00
franc,1,3,40,VT,1,slow,wide,D5,1624998.687,1624998.687,1626696.175,1627044.133,1627420.417,1628186.120,1626361.707,1626766.000,404.3,None,0,2026-07-10T15:33:47.7138663+02:00
franc,1,3,41,T,1,slow,narrow,D5,1629717.405,,,,,,1630886.954,1631234.517,347.6,None,0,2026-07-10T15:33:52.2378689+02:00
franc,1,3,42,VT,1,slow,wide,D6,1634242.309,1634242.309,1635940.469,1636288.931,1636664.836,1637430.351,1635216.962,1635523.232,306.3,None,0,2026-07-10T15:33:56.9567241+02:00
franc,1,3,43,VT,1,fast,wide,D7,1638961.838,1638961.838,1639658.329,1639783.375,1639909.125,1640159.701,1639171.328,1639505.228,333.9,None,0,2026-07-10T15:34:01.4680575+02:00
franc,1,3,44,VT,1,fast,narrow,D4,1643472.918,1643472.918,1644169.427,1644294.803,1644420.155,1644671.268,1644169.427,1644433.973,264.5,None,0,2026-07-10T15:34:05.9792098+02:00
franc,1,3,45,VT,1,fast,wide,D5,1647984.197,1647984.197,1648680.346,1648805.624,1648931.101,1649181.641,1648568.674,1648847.440,278.8,None,0,2026-07-10T15:34:10.4913742+02:00
franc,1,3,46,VT,1,slow,wide,D7,1652495.245,1652495.245,1654193.194,1654542.140,1654916.911,1655682.987,1652704.203,1653093.680,389.5,None,0,2026-07-10T15:34:15.2098955+02:00
franc,1,3,47,VT,1,slow,wide,D4,1657215.304,1657215.304,1658913.204,1659261.501,1659637.333,1660403.268,1658913.204,1659289.243,376.0,None,0,2026-07-10T15:34:19.9297832+02:00
franc,1,3,48,T,1,fast,wide,D6,1661934.347,,,,,,1662199.146,1663020.770,821.6,None,0,2026-07-10T15:34:24.4399355+02:00
franc,1,3,49,VT,1,fast,narrow,D6,1666445.645,1666445.645,1667140.978,1667266.550,1667392.035,1667642.139,1666904.126,1667210.516,306.4,None,0,2026-07-10T15:34:28.9509311+02:00
franc,1,3,50,V,0,slow,narrow,,1670956.101,1670956.101,1672654.715,1673002.292,1673378.252,1674157.553,,,,None,0,2026-07-10T15:34:33.6709039+02:00
franc,1,3,51,VT,1,slow,narrow,D7,1675675.249,1675675.249,1677372.881,1677721.200,1678097.170,1678863.076,1675883.483,1676370.252,486.8,None,0,2026-07-10T15:34:38.3896443+02:00
franc,1,3,52,V,0,fast,wide,,1680394.566,1680394.566,1681090.108,1681201.963,1681340.559,1681591.242,,,,None,0,2026-07-10T15:34:42.8997080+02:00
franc,1,3,53,VT,1,fast,narrow,D2,1684904.606,1684904.606,1685600.707,1685726.002,1685851.409,1686101.632,1685851.409,1686046.260,194.9,None,0,2026-07-10T15:34:47.4111850+02:00
franc,1,3,54,V,1,slow,wide,,1689415.475,1689415.475,1691113.782,1691461.713,1691837.759,1692603.622,,1692367.110,,None,0,2026-07-10T15:34:52.1301816+02:00
franc,1,3,55,VT,1,fast,narrow,D1,1694135.171,1694135.171,1694831.136,1694956.460,1695081.948,1695332.745,1695332.745,1696891.708,1559.0,None,0,2026-07-10T15:34:56.6404078+02:00
franc,1,3,56,VT,1,slow,narrow,D4,1698645.856,1698645.856,1700344.187,1700692.688,1701068.195,1701833.846,1700344.187,1700622.825,278.6,None,0,2026-07-10T15:35:01.3603175+02:00
franc,1,3,57,VT,1,fast,wide,D5,1703365.204,1703365.204,1704062.368,1704186.685,1704311.985,1704562.782,1703949.912,1704270.076,320.2,None,0,2026-07-10T15:35:05.8712595+02:00
franc,1,3,58,VT,1,fast,narrow,D4,1707876.210,1707876.210,1708572.333,1708697.311,1708822.918,1709073.686,1708572.333,1708822.918,250.6,None,0,2026-07-10T15:35:10.3817067+02:00
franc,1,3,59,T,1,slow,wide,D2,1712386.688,,,,,,1714614.703,1715060.336,445.6,None,0,2026-07-10T15:35:14.8922279+02:00
franc,1,3,60,T,1,slow,narrow,D6,1716897.453,,,,,,1717677.292,1719821.340,2144.0,None,0,2026-07-10T15:35:19.4035484+02:00
franc,1,3,61,T,1,slow,narrow,D3,1721408.615,,,,,,1723260.074,1723593.981,333.9,None,0,2026-07-10T15:35:23.9280931+02:00
franc,1,3,62,VT,1,slow,wide,D1,1725933.346,1725933.346,1727631.406,1727979.481,1728355.591,1729121.338,1729121.338,1729469.110,347.8,None,0,2026-07-10T15:35:28.9684099+02:00
franc,1,3,63,T,1,slow,narrow,D7,1730973.059,,,,,,1730973.059,1736235.547,5262.5,None,0,2026-07-10T15:35:35.7352414+02:00
franc,1,3,64,VT,1,fast,narrow,D5,1737738.958,1737738.958,1738435.091,1738560.154,1738685.597,1738936.399,1738323.635,1738643.907,320.3,None,0,2026-07-10T15:35:40.2451567+02:00
franc,1,3,65,VT,1,fast,wide,D4,1742250.748,1742250.748,1742946.296,1743071.799,1743197.573,1743447.882,1742946.296,1743183.580,237.3,None,0,2026-07-10T15:35:44.7577685+02:00
franc,1,3,66,VT,1,slow,wide,D3,1746762.093,1746762.093,1748460.332,1748807.997,1749183.742,1749963.953,1748807.997,1749072.654,264.7,None,0,2026-07-10T15:35:49.4760849+02:00
franc,1,3,67,T,1,slow,wide,D4,1751480.609,,,,,,1752983.999,1753290.349,306.4,None,0,2026-07-10T15:35:53.9864131+02:00
franc,1,3,68,VT,1,slow,wide,D4,1755991.412,1755991.412,1757689.744,1758038.707,1758414.175,1759193.434,1757689.744,1758024.330,334.6,None,0,2026-07-10T15:35:58.7052905+02:00
franc,1,3,69,T,1,fast,wide,D2,1760710.646,,,,,,1761462.280,1766543.700,5081.4,None,0,2026-07-10T15:36:06.0430057+02:00
franc,1,3,70,V,0,fast,wide,,1768047.452,1768047.452,1768743.425,1768868.839,1768994.036,1769244.353,,,,None,0,2026-07-10T15:36:10.5529041+02:00
franc,1,3,71,VT,1,slow,narrow,D2,1772558.199,1772558.199,1774266.166,1774601.508,1774977.623,1775757.962,1774977.623,1775326.252,348.6,None,0,2026-07-10T15:36:15.2712290+02:00
franc,1,3,72,VT,1,slow,narrow,D7,1777276.879,1777276.879,1778975.734,1779323.918,1779700.107,1780465.997,1777485.489,1777889.890,404.4,None,0,2026-07-10T15:36:19.9919777+02:00
franc,1,3,73,VT,1,fast,narrow,D1,1781997.447,1781997.447,1782693.680,1782819.222,1782944.476,1783194.993,1783194.993,1783447.336,252.3,None,0,2026-07-10T15:36:24.5033379+02:00
franc,1,3,74,V,1,fast,narrow,,1786508.868,1786508.868,1787291.041,1787330.307,1787455.100,1787705.961,,1787720.653,,None,0,2026-07-10T15:36:29.0137672+02:00
franc,1,3,75,V,0,fast,narrow,,1791019.985,1791019.985,1791714.898,1791840.072,1791965.545,1792216.040,,,,None,0,2026-07-10T15:36:33.5262107+02:00
franc,1,3,76,V,0,slow,narrow,,1795530.211,1795530.211,1797228.750,1797576.890,1797952.530,1798718.550,,,,None,0,2026-07-10T15:36:38.2452539+02:00
franc,1,3,77,VT,1,slow,narrow,D6,1800249.329,1800249.329,1801947.011,1802295.260,1802671.073,1803451.157,1801223.883,1804996.613,3772.7,None,0,2026-07-10T15:36:44.4963177+02:00
franc,1,3,78,VT,1,slow,narrow,D3,1806500.307,1806500.307,1808198.533,1808546.721,1808922.700,1809688.352,1808546.721,1808922.700,376.0,None,0,2026-07-10T15:36:49.2143431+02:00
franc,1,3,79,T,1,slow,wide,D1,1811220.095,,,,,,1814226.942,1814519.203,292.3,None,0,2026-07-10T15:36:54.0183509+02:00
franc,1,3,80,VT,1,slow,wide,D4,1816022.604,1816022.604,1817721.143,1818069.715,1818444.966,1819211.249,1817721.143,1816524.037,-1197.1,None,0,2026-07-10T15:36:58.7373930+02:00
franc,1,3,81,V,0,fast,wide,,1820742.829,1820742.829,1821439.309,1821564.135,1821689.309,1821939.798,,,,None,0,2026-07-10T15:37:03.2487726+02:00
franc,1,3,82,T,1,fast,narrow,D5,1825253.018,,,,,,1825643.222,1826785.251,1142.0,None,0,2026-07-10T15:37:07.7588288+02:00
franc,1,3,83,VT,1,fast,wide,D3,1829764.696,1829764.696,1830460.882,1830586.081,1830711.910,1830961.739,1830586.081,1830878.082,292.0,None,0,2026-07-10T15:37:12.2700274+02:00
franc,1,3,84,T,1,fast,narrow,D6,1834275.475,,,,,,1834538.642,1834873.050,334.4,None,0,2026-07-10T15:37:16.7800131+02:00
franc,1,3,85,T,1,fast,wide,D3,1838785.352,,,,,,1839411.765,1839690.441,278.7,None,0,2026-07-10T15:37:21.2908946+02:00
franc,1,3,86,T,1,fast,narrow,D4,1843297.051,,,,,,1843798.548,1851524.656,7726.1,None,0,2026-07-10T15:37:31.0281770+02:00
franc,1,3,87,V,0,fast,narrow,,1853027.287,1853027.287,1853724.011,1853849.049,1853974.418,1854224.774,,,,None,0,2026-07-10T15:37:35.5326622+02:00
franc,1,3,88,V,0,fast,narrow,,1857538.345,1857538.345,1858234.930,1858359.861,1858484.988,1858736.207,,,,None,0,2026-07-10T15:37:40.0447148+02:00
franc,1,3,89,VT,1,fast,wide,D2,1862050.122,1862050.122,1862746.442,1862871.182,1862996.746,1863247.400,1862996.746,1863317.095,320.3,None,0,2026-07-10T15:37:44.5546807+02:00
franc,1,3,90,VT,1,fast,wide,D6,1866560.465,1866560.465,1867256.661,1867381.685,1867507.632,1867758.078,1867019.826,1867340.139,320.3,None,0,2026-07-10T15:37:49.0660231+02:00
franc,1,3,91,V,0,slow,narrow,,1871071.802,1871071.802,1872770.611,1873118.403,1873494.640,1874259.877,,,,None,0,2026-07-10T15:37:53.7858001+02:00
franc,1,3,92,VT,1,fast,narrow,D6,1875791.310,1875791.310,1876487.158,1876599.454,1876737.830,1876988.831,1876250.413,1876626.505,376.1,None,0,2026-07-10T15:37:58.2966652+02:00
franc,1,3,93,VT,1,slow,narrow,D6,1880301.373,1880301.373,1882000.124,1882347.848,1882724.036,1883489.778,1881275.817,1881679.557,403.7,None,0,2026-07-10T15:38:03.0156178+02:00
franc,1,3,94,T,1,slow,narrow,D4,1885021.796,,,,,,1886525.465,1886831.926,306.5,None,0,2026-07-10T15:38:07.5266355+02:00
franc,1,3,95,VT,1,slow,wide,D1,1889532.434,1889532.434,1891230.778,1891578.723,1891954.804,1892720.562,1892720.562,1893012.774,292.2,None,0,2026-07-10T15:38:12.5121390+02:00
franc,1,3,96,VT,1,slow,wide,D5,1894516.240,1894516.240,1896214.569,1896562.426,1896938.197,1897717.548,1895880.298,1896242.421,362.1,None,0,2026-07-10T15:38:17.2309273+02:00
franc,1,3,97,VT,1,slow,wide,D6,1899235.851,1899235.851,1900933.758,1901281.890,1901657.746,1902437.114,1900210.168,1900530.356,320.2,None,0,2026-07-10T15:38:21.9492265+02:00
franc,1,3,98,VT,1,slow,narrow,D3,1903954.566,1903954.566,1905653.252,1906002.057,1906377.549,1907156.481,1906002.057,1906280.338,278.3,None,0,2026-07-10T15:38:26.6689090+02:00
franc,1,3,99,V,0,fast,wide,,1908674.301,1908674.301,1909370.329,1909495.819,1909620.968,1909872.343,,,,None,0,2026-07-10T15:38:31.1795405+02:00
franc,1,3,100,VT,1,slow,wide,D2,1913185.234,1913185.234,1914885.220,1915231.626,1915607.491,1916373.386,1915607.491,1915927.699,320.2,None,0,2026-07-10T15:38:35.8990775+02:00
franc,1,3,101,VT,1,fast,narrow,D2,1917904.752,1917904.752,1918600.825,1918726.059,1918851.368,1919102.072,1918851.368,1918948.914,97.5,None,0,2026-07-10T15:38:40.4109539+02:00
franc,1,3,102,VT,1,slow,narrow,D6,1922417.307,1922417.307,1924114.504,1924462.787,1924838.279,1925604.212,1923390.294,1923696.798,306.5,None,0,2026-07-10T15:38:45.1298038+02:00
franc,1,3,103,VT,1,fast,wide,D7,1927135.706,1927135.706,1927831.798,1927956.776,1928082.362,1928332.925,1927344.326,1931075.769,3731.4,None,0,2026-07-10T15:38:50.5787931+02:00
franc,1,3,104,T,1,fast,wide,D1,1932578.742,,,,,,1933581.165,1933902.829,321.7,None,0,2026-07-10T15:38:55.0844174+02:00
franc,1,3,105,T,1,fast,wide,D7,1937089.274,,,,,,1937089.274,1941530.280,4441.0,None,0,2026-07-10T15:39:01.0293603+02:00
franc,1,3,106,T,1,fast,wide,D4,1943034.197,,,,,,1943535.046,1944050.279,515.2,None,0,2026-07-10T15:39:05.5394550+02:00
franc,1,3,107,VT,1,fast,wide,D7,1947544.735,1947544.735,1948241.135,1948366.357,1948491.627,1948742.439,1947753.851,1948032.298,278.4,None,0,2026-07-10T15:39:10.0512791+02:00
franc,1,3,108,T,1,slow,narrow,D1,1952056.249,,,,,,1955062.814,1954158.352,-904.5,None,0,2026-07-10T15:39:14.5620260+02:00
franc,1,3,109,VT,1,slow,narrow,D7,1956566.646,1956566.646,1958264.869,1958612.972,1958989.008,1959754.544,1956775.687,1957248.831,473.1,None,0,2026-07-10T15:39:19.2814965+02:00
franc,1,3,110,V,1,slow,narrow,,1961285.660,1961285.660,1962984.300,1963332.290,1963708.158,1964474.102,,1963819.816,,None,0,2026-07-10T15:39:24.0005997+02:00
franc,1,3,111,VT,1,slow,wide,D1,1966005.343,1966005.343,1967704.021,1968051.862,1968428.145,1969193.694,1969193.694,1969583.464,389.8,None,0,2026-07-10T15:39:29.0836604+02:00
franc,1,3,112,VT,1,fast,narrow,D5,1971086.784,1971086.784,1971783.338,1971908.590,1972033.789,1972284.890,1971671.629,1972006.142,334.5,None,0,2026-07-10T15:39:33.5939507+02:00
franc,1,3,113,V,1,fast,narrow,,1975598.020,1975598.020,1976307.735,1976419.012,1976544.574,1976794.910,,1976892.960,,None,0,2026-07-10T15:39:38.1042697+02:00
franc,1,3,114,V,0,slow,narrow,,1980108.651,1980108.651,1981806.926,1982154.999,1982530.688,1983310.532,,,,None,0,2026-07-10T15:39:42.8241399+02:00
franc,1,3,115,VT,1,slow,wide,D5,1984828.383,1984828.383,1986526.682,1986874.663,1987250.798,1988016.472,1986192.921,1987487.329,1294.4,None,0,2026-07-10T15:39:47.5441965+02:00
franc,1,3,116,T,1,fast,wide,D5,1989548.061,,,,,,1989937.903,1990216.352,278.4,None,0,2026-07-10T15:39:52.0550324+02:00
franc,1,3,117,VT,1,slow,narrow,D5,1994059.328,1994059.328,1995757.174,1996105.789,1996481.119,1997260.534,1995423.679,1996370.191,946.5,None,0,2026-07-10T15:39:56.7735812+02:00
franc,1,3,118,T,1,fast,narrow,D1,1998777.811,,,,,,1999780.247,2000072.816,292.6,None,0,2026-07-10T15:40:01.2857809+02:00
franc,1,3,119,V,1,fast,wide,,2003289.589,2003289.589,2003985.726,2004111.119,2004236.584,2004487.077,,2005782.242,,None,0,2026-07-10T15:40:05.7969546+02:00
franc,1,3,120,V,0,slow,wide,,2007800.570,2007800.570,2009498.716,2009847.254,2010222.985,2011002.364,,,,None,0,2026-07-10T15:40:10.5160627+02:00
franc,1,3,121,VT,1,slow,wide,D2,2012519.418,2012519.418,2014217.619,2014565.634,2014941.545,2015707.352,2014941.545,2015206.179,264.6,None,0,2026-07-10T15:40:15.2350558+02:00
franc,1,3,122,VT,1,fast,wide,D6,2017238.953,2017238.953,2017935.741,2018060.627,2018185.761,2018436.443,2017698.413,2018019.299,320.9,None,0,2026-07-10T15:40:19.7471726+02:00
franc,1,3,123,VT,1,slow,narrow,D2,2021750.137,2021750.137,2023448.457,2023796.997,2024173.121,2024946.399,2024173.121,2024520.720,347.6,None,0,2026-07-10T15:40:24.4519858+02:00
franc,1,3,124,T,1,fast,narrow,D2,2026469.105,,,,,,2027220.913,2027569.138,348.2,None,0,2026-07-10T15:40:28.9756254+02:00
franc,1,3,125,T,1,slow,wide,D3,2030979.779,,,,,,2032831.795,2033124.109,292.3,None,0,2026-07-10T15:40:33.5022972+02:00
franc,1,3,126,VT,1,fast,narrow,D3,2035504.637,2035504.637,2036200.913,2036325.831,2036451.304,2036701.784,2036325.831,2036576.458,250.6,None,0,2026-07-10T15:40:38.0125317+02:00
franc,1,3,127,V,0,fast,narrow,,2040015.414,2040015.414,2040711.224,2040836.358,2040962.796,2041212.700,,,,None,0,2026-07-10T15:40:42.5235649+02:00
franc,1,3,128,VT,1,fast,narrow,D3,2044526.521,2044526.521,2045222.365,2045347.523,2045472.694,2045723.167,2045347.523,2045611.739,264.2,None,0,2026-07-10T15:40:47.0343170+02:00
franc,1,3,129,T,1,slow,wide,D7,2049036.773,,,,,,2049036.773,2053395.287,4358.5,None,0,2026-07-10T15:40:52.8968408+02:00
franc,1,3,130,V,0,slow,narrow,,2054898.757,2054898.757,2056597.315,2056945.479,2057321.569,2058087.015,,,,None,0,2026-07-10T15:40:57.6155216+02:00
franc,1,3,131,VT,1,slow,narrow,D1,2059618.470,2059618.470,2061316.324,2061664.704,2062040.233,2062820.090,2062820.090,2063154.200,334.1,None,0,2026-07-10T15:41:02.6555828+02:00
franc,1,3,132,VT,1,slow,narrow,D3,2064657.584,2064657.584,2066356.645,2066704.385,2067080.814,2067847.025,2066704.385,2067038.767,334.4,None,0,2026-07-10T15:41:07.3759689+02:00
franc,1,3,133,VT,1,slow,wide,D2,2069378.592,2069378.592,2071076.923,2071425.033,2071800.493,2072580.271,2071800.493,2072093.225,292.7,None,0,2026-07-10T15:41:12.0953956+02:00
franc,1,3,134,VT,1,fast,wide,D1,2074106.862,2074106.862,2074803.690,2074915.475,2075054.934,2075305.977,2075305.977,2075599.451,293.5,None,0,2026-07-10T15:41:16.6176874+02:00
franc,1,3,135,V,0,slow,wide,,2078620.700,2078620.700,2080320.285,2080668.297,2081044.160,2081810.334,,,,None,0,2026-07-10T15:41:21.3390806+02:00
franc,1,3,136,V,1,slow,wide,,2083341.780,2083341.780,2085040.264,2085388.098,2085764.003,2086543.380,,2084358.968,,None,0,2026-07-10T15:41:26.0580503+02:00
franc,1,3,137,VT,1,slow,narrow,D1,2088060.332,2088060.332,2089759.433,2090107.198,2090483.152,2091248.522,2091248.522,2091526.942,278.4,None,0,2026-07-10T15:41:31.0289885+02:00
franc,1,3,138,T,1,slow,narrow,D2,2093031.093,,,,,,2095258.206,2095593.288,335.1,None,0,2026-07-10T15:41:35.5389771+02:00
franc,1,3,139,T,1,slow,wide,D6,2097541.704,,,,,,2098321.127,2098753.471,432.3,None,0,2026-07-10T15:41:40.0498413+02:00
franc,1,3,140,VT,1,fast,narrow,D6,2102052.333,2102052.333,2102748.473,2102873.411,2102998.871,2103249.386,2102511.700,2102831.780,320.1,None,0,2026-07-10T15:41:44.5601405+02:00
