{
    "metadata": {
        "participantId": "franc",
        "clinicianInitials": "",
        "sessionDate": "2026-07-10",
        "sessionId": "s1",
        "sessionNumber": 1,
        "ageYears": 0,
        "dominantHand": 0,
        "heightCm": 0.0,
        "shoulderWidthCm": 0.0,
        "subjectGroup": "",
        "hasDbs": false,
        "sessionType": 0,
        "dbsStatus": 0,
        "language": "",
        "eegEnabled": false,
        "emgEnabled": false,
        "heartRateBandEnabled": false,
        "eyeTrackingEnabled": false,
        "task1NumberOfBlocks": 3,
        "task1TrialsPerBlock": 140,
        "task1VtTrialsPerBlock": 84,
        "task1VisualOnlyTrialsPerBlock": 14,
        "task1TactileOnlyTrialsPerBlock": 42,
        "task1BreakDurationSeconds": 30.0,
        "task1NarrowOffsetCm": 0.0,
        "task1WideOffsetCm": 100.0,
        "task1LoomingSpeeds": [
            "slow",
            "fast"
        ],
        "task1PracticeVtOnlyTrials": 2,
        "task1PracticeVtVisualTrials": 4,
        "task2NumberOfBlocks": 0,
        "task2TrialsPerBlock": 0,
        "task2BreakDurationSeconds": 0.0,
        "task2HitOffsetCm": 0.0,
        "task2NearMissOffsetCm": 0.0,
        "task2MissOffsetCm": 0.0,
        "task2BallSpeeds": [],
        "clinicianNotes": ""
    },
    "timestamp": "2026-07-10T15:41:44.5627606+02:00",
    "totalTrials": 420,
    "results": [
        {
            "definition": {
                "trialId": "B1_T01",
                "blockIndex": 0,
                "trialIndex": 0,
                "isPractice": false,
                "modality": 2,
                "speed": 0,
                "width": 0,
                "vibrationStage": 1
            },
            "trialStartTime": 63.59434029195011,
            "loomOnsetTime": 63.59434029195011,
            "crossingD7Time": 63.80346909722222,
            "crossingD6Time": 64.05456659580499,
            "crossingD5Time": 64.18003079648526,
            "crossingD4Time": 64.29085089285714,
            "crossingD3Time": 64.41649079506803,
            "crossingD2Time": 64.5416470946712,
            "crossingD1Time": 64.7923308956916,
            "vibrationFiredTime": 64.05456659580499,
            "responseTime": 64.33267549603174,
            "responded": true,
            "reactionTimeMs": 278.10888671875,
            "vibrationDeviceName": "None"
        },
        {
            "definition": {
                "trialId": "B1_T02",
                "blockIndex": 0,
                "trialIndex": 1,
                "isPractice": false,
                "modality": 2,
                "speed": 1,
                "width": 1,
                "vibrationStage": 0
            },
            "trialStartTime": 68.10586199688209,
            "loomOnsetTime": 68.10586199688209,
            "crossingD7Time": 68.31422729591837,
            "crossingD6Time": 69.08069499716554,
            "crossingD5Time": 69.4699922973356,
            "crossingD4Time": 69.80391759495464,
            "crossingD3Time": 70.15218639455782,
            "crossingD2Time": 70.52774099348072,
            "crossingD1Time": 71.30716149376417,
            "vibrationFiredTime": 68.31422729591837,
            "responseTime": 68.62083269557823,
            "responded": true,
            "reactionTimeMs": 306.60540771484377,
            "vibrationDeviceName": "None"
        },
        {
            "definition": {
                "trialId": "B1_T03",
                "blockIndex": 0,
                "trialIndex": 2,
                "isPractice": false,
                "modality": 2,
                "speed": 0,
                "width": 1,
                "vibrationStage": 1
            },
            "trialStartTime": 72.82414619472789,
            "loomOnsetTime": 72.82414619472789,
            "crossingD7Time": 73.0333632936508,
            "crossingD6Time": 73.28378049178004,
            "crossingD5Time": 73.40928529620182,
            "crossingD4Time": 73.52088269557822,
            "crossingD3Time": 73.63242899659864,
            "crossingD2Time": 73.77118579223355,
            "crossingD1Time": 74.02203579223355,
            "vibrationFiredTime": 73.28378049178004,
            "responseTime": 73.52088269557822,
            "responded": true,
            "reactionTimeMs": 237.10220336914063,
            "vibrationDeviceName": "None"
        },
        {
            "definition": {
                "trialId": "B1_T04",
                "blockIndex": 0,
                "trialIndex": 3,
                "isPractice": false,
                "modality": 0,
                "speed": 0,
                "width": 1,
                "vibrationStage": -1
            },
            "trialStartTime": 77.33625669642857,
            "loomOnsetTime": 77.33625669642857,
            "crossingD7Time": 77.54491879251701,
            "crossingD6Time": 77.79610949546485,
            "crossingD5Time": 77.92108339710885,
            "crossingD4Time": 78.03284479166666,
            "crossingD3Time": 78.15801349206349,
            "crossingD2Time": 78.2834220946712,
            "crossingD1Time": 78.5334095946712,
            "vibrationFiredTime": NaN,
            "responseTime": 78.86816469671202,
            "responded": true,
            "reactionTimeMs": NaN,
            "vibrationDeviceName": "None"
        },
        {
            "definition": {
                "trialId": "B1_T05",
                "blockIndex": 0,
                "trialIndex": 4,
                "isPractice": false,
                "modality": 1,
                "speed": 1,
                "width": 0,
                "vibrationStage": 1
            },
            "trialStartTime": 81.84768099489796,
            "loomOnsetTime": NaN,
            "crossingD7Time": NaN,
            "crossingD6Time": NaN,
            "crossingD5Time": NaN,
            "crossingD4Time": NaN,
            "crossingD3Time": NaN,
            "crossingD2Time": NaN,
            "crossingD1Time": NaN,
            "vibrationFiredTime": 82.62699449404762,
            "responseTime": 82.96172289540816,
            "responded": true,
            "reactionTimeMs": 334.7283935546875,
            "vibrationDeviceName": "None"
        },
        {
            "definition": {
                "trialId": "B1_T06",
                "blockIndex": 0,
                "trialIndex": 5,
                "isPractice": false,
                "modality": 2,
                "speed": 1,
                "width": 1,
                "vibrationStage": 4
            },
            "trialStartTime": 86.35812649518141,
            "loomOnsetTime": 86.35812649518141,
            "crossingD7Time": 86.56664409722223,
            "crossingD6Time": 87.33216959325397,
            "crossingD5Time": 87.7218218962585,
            "crossingD4Time": 88.05618029336735,
            "crossingD3Time": 88.40410389739229,
            "crossingD2Time": 88.78042959183674,
            "crossingD1Time": 89.54586599348072,
            "vibrationFiredTime": 88.40410389739229,
            "responseTime": 88.73839459325397,
            "responded": true,
            "reactionTimeMs": 334.29071044921877,
            "vibrationDeviceName": "None"
        },
        {
            "definition": {
                "trialId": "B1_T07",
                "blockIndex": 0,
                "trialIndex": 6,
                "isPractice": false,
                "modality": 2,
                "speed": 1,
                "width": 1,
                "vibrationStage": 5
            },
            "trialStartTime": 91.07717789824263,
            "loomOnsetTime": 91.07717789824263,
            "crossingD7Time": 91.28615859552154,
            "crossingD6Time": 92.05210219671202,
            "crossingD5Time": 92.4414005952381,
            "crossingD4Time": 92.77579039824262,
            "crossingD3Time": 93.12436189767573,
            "crossingD2Time": 93.49985239512472,
            "crossingD1Time": 94.26608429705215,
            "vibrationFiredTime": 93.49985239512472,
            "responseTime": 93.82105469812925,
            "responded": true,
            "reactionTimeMs": 321.2023010253906,
            "vibrationDeviceName": "None"
        },
        {
            "definition": {
                "trialId": "B1_T08",
                "blockIndex": 0,
                "trialIndex": 7,
                "isPractice": false,
                "modality": 2,
                "speed": 1,
                "width": 1,
                "vibrationStage": 6
            },
            "trialStartTime": 95.7969893920068,
            "loomOnsetTime": 95.7969893920068,
            "crossingD7Time": 96.00576779336734,
            "crossingD6Time": 96.77186549744897,
            "crossingD5Time": 97.16195219671201,
            "crossingD4Time": 97.49585729166667,
            "crossingD3Time": 97.84439159580498,
            "crossingD2Time": 98.23110789399093,
            "crossingD1Time": 98.99796009778912,
            "vibrationFiredTime": 98.99796009778912,
            "responseTime": 99.30443889597506,
            "responded": true,
            "reactionTimeMs": 306.4787902832031,
            "vibrationDeviceName": "None"
        },
        {
            "definition": {
                "trialId": "B1_T09",
                "blockIndex": 0,
                "trialIndex": 8,
                "isPractice": false,
                "modality": 1,
                "speed": 1,
                "width": 1,
                "vibrationStage": 3
            },
            "trialStartTime": 100.80867709750567,
            "loomOnsetTime": NaN,
            "crossingD7Time": NaN,
            "crossingD6Time": NaN,
            "crossingD5Time": NaN,
            "crossingD4Time": NaN,
            "crossingD3Time": NaN,
            "crossingD2Time": NaN,
            "crossingD1Time": NaN,
            "vibrationFiredTime": 102.31229789540817,
            "responseTime": 102.75803539540816,
            "responded": true,
            "reactionTimeMs": 445.73748779296877,
            "vibrationDeviceName": "None"
        },
        {
            "definition": {
                "trialId": "B1_T10",
                "blockIndex": 0,
                "trialIndex": 9,
                "isPractice": false,
                "modality": 2,
                "speed": 0,
                "width": 1,
                "vibrationStage": 3
            },
            "trialStartTime": 105.31947379535147,
            "loomOnsetTime": 105.31947379535147,
            "crossingD7Time": 105.52877489370748,
            "crossingD6Time": 105.7784422973356,
            "crossingD5Time": 105.90408659297052,
            "crossingD4Time": 106.01555219671201,
            "crossingD3Time": 106.14017249858276,
            "crossingD2Time": 106.26550569727891,
            "crossingD1Time": 106.51625819160998,
            "vibrationFiredTime": 106.01555219671201,
            "responseTime": 106.35025119756236,
            "responded": true,
            "reactionTimeMs": 334.6990051269531,
            "vibrationDeviceName": "None"
        },
        {
            "definition": {
                "trialId": "B1_T11",
                "blockIndex": 0,
                "trialIndex": 10,
                "isPractice": false,
                "modality": 2,
                "speed": 0,
                "width": 0,
                "vibrationStage": 0
            },
            "trialStartTime": 109.82998929280045,
            "loomOnsetTime": 109.82998929280045,
            "crossingD7Time": 110.03958519699546,
            "crossingD6Time": 110.28957719671202,
            "crossingD5Time": 110.41473359552154,
            "crossingD4Time": 110.52604019274377,
            "crossingD3Time": 110.6512273951247,
            "crossingD2Time": 110.77696149376416,
            "crossingD1Time": 111.02695899234694,
            "vibrationFiredTime": 110.03958519699546,
            "responseTime": 110.47109599631519,
            "responded": true,
            "reactionTimeMs": 431.51080322265627,
            "vibrationDeviceName": "None"
        },
        {
            "definition": {
                "trialId": "B1_T12",
                "blockIndex": 0,
                "trialIndex": 11,
                "isPractice": false,
                "modality": 0,
                "speed": 1,
                "width": 0,
                "vibrationStage": -1
            },
            "trialStartTime": 114.34037699829932,
            "loomOnsetTime": 114.34037699829932,
            "crossingD7Time": 114.54951179846938,
            "crossingD6Time": 115.31482469529478,
            "crossingD5Time": 115.70503469387755,
            "crossingD4Time": 116.03953669217687,
            "crossingD3Time": 116.38735399659864,
            "crossingD2Time": 116.76325929705215,
            "crossingD1Time": 117.52867559523809,
            "vibrationFiredTime": NaN,
            "responseTime": NaN,
            "responded": false,
            "reactionTimeMs": NaN,
            "vibrationDeviceName": "None"
        },
        {
            "definition": {
                "trialId": "B1_T13",
                "blockIndex": 0,
                "trialIndex": 12,
                "isPractice": false,
                "modality": 1,
                "speed": 1,
                "width": 0,
                "vibrationStage": 4
            },
            "trialStartTime": 119.06147459608843,
            "loomOnsetTime": NaN,
            "crossingD7Time": NaN,
            "crossingD6Time": NaN,
            "crossingD5Time": NaN,
            "crossingD4Time": NaN,
            "crossingD3Time": NaN,
            "crossingD2Time": NaN,
            "crossingD1Time": NaN,
            "vibrationFiredTime": 120.9114266935941,
            "responseTime": 125.2972902919501,
            "responded": true,
            "reactionTimeMs": 4385.86376953125,
            "vibrationDeviceName": "None"
        },
        {
            "definition": {
                "trialId": "B1_T14",
                "blockIndex": 0,
                "trialIndex": 13,
                "isPractice": false,
                "modality": 2,
                "speed": 0,
                "width": 1,
                "vibrationStage": 6
            },
            "trialStartTime": 126.80121159297052,
            "loomOnsetTime": 126.80121159297052,
            "crossingD7Time": 127.0098628968254,
            "crossingD6Time": 127.2604514951814,
            "crossingD5Time": 127.38584399801587,
            "crossingD4Time": 127.49719519557823,
            "crossingD3Time": 127.62280729166666,
            "crossingD2Time": 127.74806179846938,
            "crossingD1Time": 127.99849609552153,
            "vibrationFiredTime": 127.99849609552153,
            "responseTime": 128.2771130952381,
            "responded": true,
            "reactionTimeMs": 278.61700439453127,
            "vibrationDeviceName": "None"
        },
        {
            "definition": {
                "trialId": "B1_T15",
                "blockIndex": 0,
                "trialIndex": 14,
                "isPractice": false,
                "modality": 2,
                "speed": 0,
                "width": 0,
                "vibrationStage": 6
            },
            "trialStartTime": 131.31209859693878,
            "loomOnsetTime": 131.31209859693878,
            "crossingD7Time": 131.52054649234695,
            "crossingD6Time": 131.77177219387756,
            "crossingD5Time": 131.8968887967687,
            "crossingD4Time": 132.0081518920068,
            "crossingD3Time": 132.13387499291384,
            "crossingD2Time": 132.25905329506802,
            "crossingD1Time": 132.50928669217687,
            "vibrationFiredTime": 132.50928669217687,
            "responseTime": 132.77387219387755,
            "responded": true,
            "reactionTimeMs": 264.58551025390627,
            "vibrationDeviceName": "None"
        },
        {
            "definition": {
                "trialId": "B1_T16",
                "blockIndex": 0,
                "trialIndex": 15,
                "isPractice": false,
                "modality": 2,
                "speed": 1,
                "width": 0,
                "vibrationStage": 5
            },
            "trialStartTime": 135.82309349489797,
            "loomOnsetTime": 135.82309349489797,
            "crossingD7Time": 136.03185649801586,
            "crossingD6Time": 136.79777879818594,
            "crossingD5Time": 137.18747249858277,
            "crossingD4Time": 137.52155709325397,
            "crossingD3Time": 137.8699042942177,
            "crossingD2Time": 138.24539029195013,
            "crossingD1Time": 139.01116989795919,
            "vibrationFiredTime": 138.24539029195013,
            "responseTime": 138.5239917942177,
            "responded": true,
            "reactionTimeMs": 278.60150146484377,
            "vibrationDeviceName": "None"
        },
        {
            "definition": {
                "trialId": "B1_T17",
                "blockIndex": 0,
                "trialIndex": 16,
                "isPractice": false,
                "modality": 2,
                "speed": 0,
                "width": 1,
                "vibrationStage": 5
            },
            "trialStartTime": 140.5428330924036,
            "loomOnsetTime": 140.5428330924036,
            "crossingD7Time": 140.75167859268707,
            "crossingD6Time": 141.00224209183674,
            "crossingD5Time": 141.127893792517,
            "crossingD4Time": 141.23933229166668,
            "crossingD3Time": 141.3643955924036,
            "crossingD2Time": 141.48928669217688,
            "crossingD1Time": 141.7405262967687,
            "vibrationFiredTime": 141.48928669217688,
            "responseTime": 141.7405262967687,
            "responded": true,
            "reactionTimeMs": 251.23960876464845,
            "vibrationDeviceName": "None"
        },
        {
            "definition": {
                "trialId": "B1_T18",
                "blockIndex": 0,
                "trialIndex": 17,
                "isPractice": false,
                "modality": 2,
                "speed": 0,
                "width": 0,
                "vibrationStage": 3
            },
            "trialStartTime": 145.0528768920068,
            "loomOnsetTime": 145.0528768920068,
            "crossingD7Time": 145.26187769274376,
            "crossingD6Time": 145.5128611961451,
            "crossingD5Time": 145.63768369472789,
            "crossingD4Time": 145.7492172973356,
            "crossingD3Time": 145.86115249433107,
            "crossingD2Time": 146.00066979166668,
            "crossingD1Time": 146.25085139597506,
            "vibrationFiredTime": 145.7492172973356,
            "responseTime": 146.223481292517,
            "responded": true,
            "reactionTimeMs": 474.2640075683594,
            "vibrationDeviceName": "None"
        },
        {
            "definition": {
                "trialId": "B1_T19",
                "blockIndex": 0,
                "trialIndex": 18,
                "isPractice": false,
                "modality": 2,
                "speed": 1,
                "width": 0,
                "vibrationStage": 6
            },
            "trialStartTime": 149.56494259495464,
            "loomOnsetTime": 149.56494259495464,
            "crossingD7Time": 149.77334809382087,
            "crossingD6Time": 150.53911839569163,
            "crossingD5Time": 150.92879349489795,
            "crossingD4Time": 151.26314089427437,
            "crossingD3Time": 151.6110591978458,
            "crossingD2Time": 151.98690369189343,
            "crossingD1Time": 152.75274929846939,
            "vibrationFiredTime": 152.75274929846939,
            "responseTime": 153.1004887967687,
            "responded": true,
            "reactionTimeMs": 347.739501953125,
            "vibrationDeviceName": "None"
        },
        {
            "definition": {
                "trialId": "B1_T20",
                "blockIndex": 0,
                "trialIndex": 19,
                "isPractice": false,
                "modality": 0,
                "speed": 1,
                "width": 1,
                "vibrationStage": -1
            },
            "trialStartTime": 154.60397879818596,
            "loomOnsetTime": 154.60397879818596,
            "crossingD7Time": 154.8124536918934,
            "crossingD6Time": 155.57874899376419,
            "crossingD5Time": 155.96851409438777,
            "crossingD4Time": 156.30327829506803,
            "crossingD3Time": 156.65067499291383,
            "crossingD2Time": 157.02668449546486,
            "crossingD1Time": 157.79211459750568,
            "vibrationFiredTime": NaN,
            "responseTime": NaN,
            "responded": false,
            "reactionTimeMs": NaN,
            "vibrationDeviceName": "None"
        },
        {
            "definition": {
                "trialId": "B1_T21",
                "blockIndex": 0,
                "trialIndex": 20,
                "isPractice": false,
                "modality": 2,
                "speed": 0,
                "width": 1,
                "vibrationStage": 6
            },
            "trialStartTime": 159.32380549178004,
            "loomOnsetTime": 159.32380549178004,
            "crossingD7Time": 159.53235179280046,
            "crossingD6Time": 159.7830477962018,
            "crossingD5Time": 159.9084613945578,
            "crossingD4Time": 160.02022989654194,
            "crossingD3Time": 160.14533689767573,
            "crossingD2Time": 160.2710963931406,
            "crossingD1Time": 160.52133999433108,
            "vibrationFiredTime": 160.52133999433108,
            "responseTime": 160.86957589285715,
            "responded": true,
            "reactionTimeMs": 348.23590087890627,
            "vibrationDeviceName": "None"
        },
        {
            "definition": {
                "trialId": "B1_T22",
                "blockIndex": 0,
                "trialIndex": 21,
                "isPractice": false,
                "modality": 2,
                "speed": 0,
                "width": 0,
                "vibrationStage": 0
            },
            "trialStartTime": 163.83465209750566,
            "loomOnsetTime": 163.83465209750566,
            "crossingD7Time": 164.043063598356,
            "crossingD6Time": 164.29372709750568,
            "crossingD5Time": 164.4193659934807,
            "crossingD4Time": 164.53052709750566,
            "crossingD3Time": 164.6558518920068,
            "crossingD2Time": 164.78141759495464,
            "crossingD1Time": 165.03189649234694,
            "vibrationFiredTime": 164.043063598356,
            "responseTime": 164.3774363945578,
            "responded": true,
            "reactionTimeMs": 334.372802734375,
            "vibrationDeviceName": "None"
        },
        {
            "definition": {
                "trialId": "B1_T23",
                "blockIndex": 0,
                "trialIndex": 22,
                "isPractice": false,
                "modality": 2,
                "speed": 1,
                "width": 0,
                "vibrationStage": 3
            },
            "trialStartTime": 168.34473149801588,
            "loomOnsetTime": 168.34473149801588,
            "crossingD7Time": 168.55439089427439,
            "crossingD6Time": 169.3192486961451,
            "crossingD5Time": 169.70912839427437,
            "crossingD4Time": 170.04324729308389,
            "crossingD3Time": 170.39105999858277,
            "crossingD2Time": 170.78739119189343,
            "crossingD1Time": 171.53279299178005,
            "vibrationFiredTime": 170.04324729308389,
            "responseTime": 170.54424589710883,
            "responded": true,
            "reactionTimeMs": 500.99859619140627,
            "vibrationDeviceName": "None"
        },
        {
            "definition": {
                "trialId": "B1_T24",
                "blockIndex": 0,
                "trialIndex": 23,
                "isPractice": false,
                "modality": 2,
                "speed": 0,
                "width": 0,
                "vibrationStage": 0
            },
            "trialStartTime": 173.06404769699547,
            "loomOnsetTime": 173.06404769699547,
            "crossingD7Time": 173.27304579790249,
            "crossingD6Time": 173.52363759212018,
            "crossingD5Time": 173.6488338931406,
            "crossingD4Time": 173.76019059665533,
            "crossingD3Time": 173.88564679705216,
            "crossingD2Time": 174.01106989795918,
            "crossingD1Time": 174.26151409438774,
            "vibrationFiredTime": 173.27304579790249,
            "responseTime": 173.59314979450114,
            "responded": true,
            "reactionTimeMs": 320.10400390625,
            "vibrationDeviceName": "None"
        },
        {
            "definition": {
                "trialId": "B1_T25",
                "blockIndex": 0,
                "trialIndex": 24,
                "isPractice": false,
                "modality": 2,
                "speed": 1,
                "width": 1,
                "vibrationStage": 2
            },
            "trialStartTime": 177.57537989654194,
            "loomOnsetTime": 177.57537989654194,
            "crossingD7Time": 177.7841806972789,
            "crossingD6Time": 178.54958139172335,
            "crossingD5Time": 178.93925349348073,
            "crossingD4Time": 179.27319409722223,
            "crossingD3Time": 179.62130399659865,
            "crossingD2Time": 179.99739129818594,
            "crossingD1Time": 180.77722359693878,
            "vibrationFiredTime": 178.93925349348073,
            "responseTime": 179.3437444940476,
            "responded": true,
            "reactionTimeMs": 404.4909973144531,
            "vibrationDeviceName": "None"
        },
        {
            "definition": {
                "trialId": "B1_T26",
                "blockIndex": 0,
                "trialIndex": 25,
                "isPractice": false,
                "modality": 2,
                "speed": 1,
                "width": 0,
                "vibrationStage": 1
            },
            "trialStartTime": 182.2942288973923,
            "loomOnsetTime": 182.2942288973923,
            "crossingD7Time": 182.50316249291383,
            "crossingD6Time": 183.26891129535148,
            "crossingD5Time": 183.65853909438776,
            "crossingD4Time": 183.99307749433107,
            "crossingD3Time": 184.34107699829932,
            "crossingD2Time": 184.71687039399093,
            "crossingD1Time": 185.48248999433106,
            "vibrationFiredTime": 183.26891129535148,
            "responseTime": 183.53365949546484,
            "responded": true,
            "reactionTimeMs": 264.7481994628906,
            "vibrationDeviceName": "None"
        },
        {
            "definition": {
                "trialId": "B1_T27",
                "blockIndex": 0,
                "trialIndex": 26,
                "isPractice": false,
                "modality": 1,
                "speed": 1,
                "width": 0,
                "vibrationStage": 2
            },
            "trialStartTime": 187.01397049319727,
            "loomOnsetTime": NaN,
            "crossingD7Time": NaN,
            "crossingD6Time": NaN,
            "crossingD5Time": NaN,
            "crossingD4Time": NaN,
            "crossingD3Time": NaN,
            "crossingD2Time": NaN,
            "crossingD1Time": NaN,
            "vibrationFiredTime": 188.1839286918934,
            "responseTime": 192.45765789399094,
            "responded": true,
            "reactionTimeMs": 4273.72900390625,
            "vibrationDeviceName": "None"
        },
        {
            "definition": {
                "trialId": "B1_T28",
                "blockIndex": 0,
                "trialIndex": 27,
                "isPractice": false,
                "modality": 2,
                "speed": 1,
                "width": 1,
                "vibrationStage": 0
            },
            "trialStartTime": 193.96097459608843,
            "loomOnsetTime": 193.96097459608843,
            "crossingD7Time": 194.1700071924603,
            "crossingD6Time": 194.93529659155329,
            "crossingD5Time": 195.32512999574829,
            "crossingD4Time": 195.65913409863945,
            "crossingD3Time": 196.0075266935941,
            "crossingD2Time": 196.38349539399094,
            "crossingD1Time": 197.14940619331066,
            "vibrationFiredTime": 194.1700071924603,
            "responseTime": 194.5316766935941,
            "responded": true,
            "reactionTimeMs": 361.66949462890627,
            "vibrationDeviceName": "None"
        },
        {
            "definition": {
                "trialId": "B1_T29",
                "blockIndex": 0,
                "trialIndex": 28,
                "isPractice": false,
                "modality": 0,
                "speed": 0,
                "width": 0,
                "vibrationStage": -1
            },
            "trialStartTime": 198.68039859693878,
            "loomOnsetTime": 198.68039859693878,
            "crossingD7Time": 198.88965419501134,
            "crossingD6Time": 199.1406334963152,
            "crossingD5Time": 199.26501499433108,
            "crossingD4Time": 199.37668909438777,
            "crossingD3Time": 199.5015012967687,
            "crossingD2Time": 199.62700089285713,
            "crossingD1Time": 199.87793429705216,
            "vibrationFiredTime": NaN,
            "responseTime": NaN,
            "responded": false,
            "reactionTimeMs": NaN,
            "vibrationDeviceName": "None"
        },
        {
            "definition": {
                "trialId": "B1_T30",
                "blockIndex": 0,
                "trialIndex": 29,
                "isPractice": false,
                "modality": 1,
                "speed": 0,
                "width": 0,
                "vibrationStage": 1
            },
            "trialStartTime": 203.19125309665533,
            "loomOnsetTime": NaN,
            "crossingD7Time": NaN,
            "crossingD6Time": NaN,
            "crossingD5Time": NaN,
            "crossingD4Time": NaN,
            "crossingD3Time": NaN,
            "crossingD2Time": NaN,
            "crossingD1Time": NaN,
            "vibrationFiredTime": 203.45620159438776,
            "responseTime": 203.76263089569162,
            "responded": true,
            "reactionTimeMs": 306.4292907714844,
            "vibrationDeviceName": "None"
        },
        {
            "definition": {
                "trialId": "B1_T31",
                "blockIndex": 0,
                "trialIndex": 30,
                "isPractice": false,
                "modality": 1,
                "speed": 1,
                "width": 1,
                "vibrationStage": 2
            },
            "trialStartTime": 207.70303119331065,
            "loomOnsetTime": NaN,
            "crossingD7Time": NaN,
            "crossingD6Time": NaN,
            "crossingD5Time": NaN,
            "crossingD4Time": NaN,
            "crossingD3Time": NaN,
            "crossingD2Time": NaN,
            "crossingD1Time": NaN,
            "vibrationFiredTime": 208.87307699829933,
            "responseTime": 212.64489829223357,
            "responded": true,
            "reactionTimeMs": 3771.8212890625,
            "vibrationDeviceName": "None"
        },
        {
            "definition": {
                "trialId": "B1_T32",
                "blockIndex": 0,
                "trialIndex": 31,
                "isPractice": false,
                "modality": 0,
                "speed": 1,
                "width": 1,
                "vibrationStage": -1
            },
            "trialStartTime": 214.14821059382087,
            "loomOnsetTime": 214.14821059382087,
            "crossingD7Time": 214.3568356930272,
            "crossingD6Time": 215.12264179421769,
            "crossingD5Time": 215.51323139172335,
            "crossingD4Time": 215.84656499433107,
            "crossingD3Time": 216.1947428925737,
            "crossingD2Time": 216.57042559523809,
            "crossingD1Time": 217.33642869189343,
            "vibrationFiredTime": NaN,
            "responseTime": NaN,
            "responded": false,
            "reactionTimeMs": NaN,
            "vibrationDeviceName": "None"
        },
        {
            "definition": {
                "trialId": "B1_T33",
                "blockIndex": 0,
                "trialIndex": 32,
                "isPractice": false,
                "modality": 2,
                "speed": 0,
                "width": 0,
                "vibrationStage": 1
            },
            "trialStartTime": 218.8680082979025,
            "loomOnsetTime": 218.8680082979025,
            "crossingD7Time": 219.07698489229024,
            "crossingD6Time": 219.32781939484128,
            "crossingD5Time": 219.45274459325396,
            "crossingD4Time": 219.56429169501133,
            "crossingD3Time": 219.67614239654194,
            "crossingD2Time": 219.81514849773243,
            "crossingD1Time": 220.06531639739229,
            "vibrationFiredTime": 219.32781939484128,
            "responseTime": 219.6477027919501,
            "responded": true,
            "reactionTimeMs": 319.8833923339844,
            "vibrationDeviceName": "None"
        },
        {
            "definition": {
                "trialId": "B1_T34",
                "blockIndex": 0,
                "trialIndex": 33,
                "isPractice": false,
                "modality": 2,
                "speed": 1,
                "width": 0,
                "vibrationStage": 2
            },
            "trialStartTime": 223.3797253968254,
            "loomOnsetTime": 223.3797253968254,
            "crossingD7Time": 223.5883769982993,
            "crossingD6Time": 224.35372369614513,
            "crossingD5Time": 224.74358909438775,
            "crossingD4Time": 225.0776509920635,
            "crossingD3Time": 225.42568139172335,
            "crossingD2Time": 225.80138209325396,
            "crossingD1Time": 226.58118049178004,
            "vibrationFiredTime": 224.74358909438775,
            "responseTime": 225.02239889455783,
            "responded": true,
            "reactionTimeMs": 278.809814453125,
            "vibrationDeviceName": "None"
        },
        {
            "definition": {
                "trialId": "B1_T35",
                "blockIndex": 0,
                "trialIndex": 34,
                "isPractice": false,
                "modality": 2,
                "speed": 0,
                "width": 0,
                "vibrationStage": 2
            },
            "trialStartTime": 228.0982584963152,
            "loomOnsetTime": 228.0982584963152,
            "crossingD7Time": 228.30693559382085,
            "crossingD6Time": 228.557492694161,
            "crossingD5Time": 228.68320909155328,
            "crossingD4Time": 228.79451189767574,
            "crossingD3Time": 228.9197266935941,
            "crossingD2Time": 229.04498029336734,
            "crossingD1Time": 229.2954519982993,
            "vibrationFiredTime": 228.68320909155328,
            "responseTime": 228.98920929705217,
            "responded": true,
            "reactionTimeMs": 306.0002136230469,
            "vibrationDeviceName": "None"
        },
        {
            "definition": {
                "trialId": "B1_T36",
                "blockIndex": 0,
                "trialIndex": 35,
                "isPractice": false,
                "modality": 2,
                "speed": 1,
                "width": 1,
                "vibrationStage": 1
            },
            "trialStartTime": 232.60919789540817,
            "loomOnsetTime": 232.60919789540817,
            "crossingD7Time": 232.81774659863945,
            "crossingD6Time": 233.58360649801586,
            "crossingD5Time": 233.9736044926304,
            "crossingD4Time": 234.3075027919501,
            "crossingD3Time": 234.6556058956916,
            "crossingD2Time": 235.03167329223357,
            "crossingD1Time": 235.7968957979025,
            "vibrationFiredTime": 233.58360649801586,
            "responseTime": 233.89005949546485,
            "responded": true,
            "reactionTimeMs": 306.4530029296875,
            "vibrationDeviceName": "None"
        },
        {
            "definition": {
                "trialId": "B1_T37",
                "blockIndex": 0,
                "trialIndex": 36,
                "isPractice": false,
                "modality": 1,
                "speed": 0,
                "width": 1,
                "vibrationStage": 5
            },
            "trialStartTime": 237.32881289682539,
            "loomOnsetTime": NaN,
            "crossingD7Time": NaN,
            "crossingD6Time": NaN,
            "crossingD5Time": NaN,
            "crossingD4Time": NaN,
            "crossingD3Time": NaN,
            "crossingD2Time": NaN,
            "crossingD1Time": NaN,
            "vibrationFiredTime": 238.08051949404763,
            "responseTime": 238.3729394982993,
            "responded": true,
            "reactionTimeMs": 292.4200134277344,
            "vibrationDeviceName": "None"
        },
        {
            "definition": {
                "trialId": "B1_T38",
                "blockIndex": 0,
                "trialIndex": 37,
                "isPractice": false,
                "modality": 0,
                "speed": 1,
                "width": 0,
                "vibrationStage": -1
            },
            "trialStartTime": 241.83894669784579,
            "loomOnsetTime": 241.83894669784579,
            "crossingD7Time": 242.0479347930839,
            "crossingD6Time": 242.81421289682539,
            "crossingD5Time": 243.2038711947279,
            "crossingD4Time": 243.538113598356,
            "crossingD3Time": 243.88650859552153,
            "crossingD2Time": 244.26215379818593,
            "crossingD1Time": 245.0278185941043,
            "vibrationFiredTime": NaN,
            "responseTime": NaN,
            "responded": false,
            "reactionTimeMs": NaN,
            "vibrationDeviceName": "None"
        },
        {
            "definition": {
                "trialId": "B1_T39",
                "blockIndex": 0,
                "trialIndex": 38,
                "isPractice": false,
                "modality": 2,
                "speed": 0,
                "width": 0,
                "vibrationStage": 5
            },
            "trialStartTime": 246.55911129535148,
            "loomOnsetTime": 246.55911129535148,
            "crossingD7Time": 246.76829649234694,
            "crossingD6Time": 247.01834879535148,
            "crossingD5Time": 247.14402339852607,
            "crossingD4Time": 247.25519059665533,
            "crossingD3Time": 247.38054439484126,
            "crossingD2Time": 247.50585179280047,
            "crossingD1Time": 247.7564648951247,
            "vibrationFiredTime": 247.50585179280047,
            "responseTime": 247.72884309807257,
            "responded": true,
            "reactionTimeMs": 222.99130249023438,
            "vibrationDeviceName": "None"
        },
        {
            "definition": {
                "trialId": "B1_T40",
                "blockIndex": 0,
                "trialIndex": 39,
                "isPractice": false,
                "modality": 0,
                "speed": 0,
                "width": 1,
                "vibrationStage": -1
            },
            "trialStartTime": 251.06916729733559,
            "loomOnsetTime": 251.06916729733559,
            "crossingD7Time": 251.27835119756237,
            "crossingD6Time": 251.52883959750566,
            "crossingD5Time": 251.6540299957483,
            "crossingD4Time": 251.76541649659863,
            "crossingD3Time": 251.87719209183673,
            "crossingD2Time": 252.01665529336735,
            "crossingD1Time": 252.26667239229026,
            "vibrationFiredTime": NaN,
            "responseTime": 252.2110863945578,
            "responded": true,
            "reactionTimeMs": NaN,
            "vibrationDeviceName": "None"
        },
        {
            "definition": {
                "trialId": "B1_T41",
                "blockIndex": 0,
                "trialIndex": 40,
                "isPractice": false,
                "modality": 0,
                "speed": 1,
                "width": 1,
                "vibrationStage": -1
            },
            "trialStartTime": 255.5800466978458,
            "loomOnsetTime": 255.5800466978458,
            "crossingD7Time": 255.78893839285713,
            "crossingD6Time": 256.55437939342405,
            "crossingD5Time": 256.9445607922336,
            "crossingD4Time": 257.27893739370747,
            "crossingD3Time": 257.62673719529479,
            "crossingD2Time": 258.0025803925737,
            "crossingD1Time": 258.76850689484129,
            "vibrationFiredTime": NaN,
            "responseTime": NaN,
            "responded": false,
            "reactionTimeMs": NaN,
            "vibrationDeviceName": "None"
        },
        {
            "definition": {
                "trialId": "B1_T42",
                "blockIndex": 0,
                "trialIndex": 41,
                "isPractice": false,
                "modality": 1,
                "speed": 0,
                "width": 1,
                "vibrationStage": 6
            },
            "trialStartTime": 260.2998959963152,
            "loomOnsetTime": NaN,
            "crossingD7Time": NaN,
            "crossingD6Time": NaN,
            "crossingD5Time": NaN,
            "crossingD4Time": NaN,
            "crossingD3Time": NaN,
            "crossingD2Time": NaN,
            "crossingD1Time": NaN,
            "vibrationFiredTime": 261.30208209325397,
            "responseTime": 261.69209389172337,
            "responded": true,
            "reactionTimeMs": 390.0118103027344,
            "vibrationDeviceName": "None"
        },
        {
            "definition": {
                "trialId": "B1_T43",
                "blockIndex": 0,
                "trialIndex": 42,
                "isPractice": false,
                "modality": 0,
                "speed": 0,
                "width": 1,
                "vibrationStage": -1
            },
            "trialStartTime": 264.8107587939342,
            "loomOnsetTime": 264.8107587939342,
            "crossingD7Time": 265.0196444940476,
            "crossingD6Time": 265.28404569160997,
            "crossingD5Time": 265.39569629393426,
            "crossingD4Time": 265.506617694161,
            "crossingD3Time": 265.63198579223356,
            "crossingD2Time": 265.7572492984694,
            "crossingD1Time": 266.0077139951814,
            "vibrationFiredTime": NaN,
            "responseTime": NaN,
            "responded": false,
            "reactionTimeMs": NaN,
            "vibrationDeviceName": "None"
        },
        {
            "definition": {
                "trialId": "B1_T44",
                "blockIndex": 0,
                "trialIndex": 43,
                "isPractice": false,
                "modality": 1,
                "speed": 0,
                "width": 1,
                "vibrationStage": 1
            },
            "trialStartTime": 269.3216150935374,
            "loomOnsetTime": NaN,
            "crossingD7Time": NaN,
            "crossingD6Time": NaN,
            "crossingD5Time": NaN,
            "crossingD4Time": NaN,
            "crossingD3Time": NaN,
            "crossingD2Time": NaN,
            "crossingD1Time": NaN,
            "vibrationFiredTime": 269.5855780966553,
            "responseTime": 274.48296499433106,
            "responded": true,
            "reactionTimeMs": 4897.38671875,
            "vibrationDeviceName": "None"
        },
        {
            "definition": {
                "trialId": "B1_T45",
                "blockIndex": 0,
                "trialIndex": 44,
                "isPractice": false,
                "modality": 2,
                "speed": 1,
                "width": 0,
                "vibrationStage": 3
            },
            "trialStartTime": 275.98838359552158,
            "loomOnsetTime": 275.98838359552158,
            "crossingD7Time": 276.1980101969954,
            "crossingD6Time": 276.96353339710887,
            "crossingD5Time": 277.35378099489795,
            "crossingD4Time": 277.6879735969388,
            "crossingD3Time": 278.03634389172336,
            "crossingD2Time": 278.4121630952381,
            "crossingD1Time": 279.1777451955782,
            "vibrationFiredTime": 277.6879735969388,
            "responseTime": 278.189412797619,
            "responded": true,
            "reactionTimeMs": 501.439208984375,
            "vibrationDeviceName": "None"
        },
        {
            "definition": {
                "trialId": "B1_T46",
                "blockIndex": 0,
                "trialIndex": 45,
                "isPractice": false,
                "modality": 2,
                "speed": 0,
                "width": 1,
                "vibrationStage": 4
            },
            "trialStartTime": 280.7099494968821,
            "loomOnsetTime": 280.7099494968821,
            "crossingD7Time": 280.91861979166665,
            "crossingD6Time": 281.1694207979025,
            "crossingD5Time": 281.294505194161,
            "crossingD4Time": 281.40621209608846,
            "crossingD3Time": 281.5314910926871,
            "crossingD2Time": 281.656675297619,
            "crossingD1Time": 281.90771409438778,
            "vibrationFiredTime": 281.5314910926871,
            "responseTime": 281.83787569444447,
            "responded": true,
            "reactionTimeMs": 306.3846130371094,
            "vibrationDeviceName": "None"
        },
        {
            "definition": {
                "trialId": "B1_T47",
                "blockIndex": 0,
                "trialIndex": 46,
                "isPractice": false,
                "modality": 0,
                "speed": 0,
                "width": 0,
                "vibrationStage": -1
            },
            "trialStartTime": 285.2210832979025,
            "loomOnsetTime": 285.2210832979025,
            "crossingD7Time": 285.4295234977324,
            "crossingD6Time": 285.68064459325395,
            "crossingD5Time": 285.8057357922336,
            "crossingD4Time": 285.9175511975624,
            "crossingD3Time": 286.0291764951814,
            "crossingD2Time": 286.16760479733559,
            "crossingD1Time": 286.41811779336737,
            "vibrationFiredTime": NaN,
            "responseTime": NaN,
            "responded": false,
            "reactionTimeMs": NaN,
            "vibrationDeviceName": "None"
        },
        {
            "definition": {
                "trialId": "B1_T48",
                "blockIndex": 0,
                "trialIndex": 47,
                "isPractice": false,
                "modality": 2,
                "speed": 0,
                "width": 1,
                "vibrationStage": 3
            },
            "trialStartTime": 289.73120549178005,
            "loomOnsetTime": 289.73120549178005,
            "crossingD7Time": 289.9401334963152,
            "crossingD6Time": 290.19043869756237,
            "crossingD5Time": 290.3161319940476,
            "crossingD4Time": 290.42750729166667,
            "crossingD3Time": 290.5527082979025,
            "crossingD2Time": 290.6777443948413,
            "crossingD1Time": 290.9285433956916,
            "vibrationFiredTime": 290.42750729166667,
            "responseTime": 290.7337858985261,
            "responded": true,
            "reactionTimeMs": 306.2785949707031,
            "vibrationDeviceName": "None"
        },
        {
            "definition": {
                "trialId": "B1_T49",
                "blockIndex": 0,
                "trialIndex": 48,
                "isPractice": false,
                "modality": 0,
                "speed": 1,
                "width": 1,
                "vibrationStage": -1
            },
            "trialStartTime": 294.2421139951814,
            "loomOnsetTime": 294.2421139951814,
            "crossingD7Time": 294.4505999929138,
            "crossingD6Time": 295.216989696712,
            "crossingD5Time": 295.60647749433107,
            "crossingD4Time": 295.94079499716556,
            "crossingD3Time": 296.2888727962018,
            "crossingD2Time": 296.66452519841269,
            "crossingD1Time": 297.4310136975623,
            "vibrationFiredTime": NaN,
            "responseTime": NaN,
            "responded": false,
            "reactionTimeMs": NaN,
            "vibrationDeviceName": "None"
        },
        {
            "definition": {
                "trialId": "B1_T50",
                "blockIndex": 0,
                "trialIndex": 49,
                "isPractice": false,
                "modality": 2,
                "speed": 0,
                "width": 0,
                "vibrationStage": 6
            },
            "trialStartTime": 298.96215369189346,
            "loomOnsetTime": 298.96215369189346,
            "crossingD7Time": 299.1709064980159,
            "crossingD6Time": 299.42151689342406,
            "crossingD5Time": 299.54660759637189,
            "crossingD4Time": 299.65821759495466,
            "crossingD3Time": 299.7837623937075,
            "crossingD2Time": 299.9090946924603,
            "crossingD1Time": 300.15954349489797,
            "vibrationFiredTime": 300.15954349489797,
            "responseTime": 300.5217020975057,
            "responded": true,
            "reactionTimeMs": 362.1585998535156,
            "vibrationDeviceName": "None"
        },
        {
            "definition": {
                "trialId": "B1_T51",
                "blockIndex": 0,
                "trialIndex": 50,
                "isPractice": false,
                "modality": 2,
                "speed": 1,
                "width": 0,
                "vibrationStage": 0
            },
            "trialStartTime": 303.47262739512476,
            "loomOnsetTime": 303.47262739512476,
            "crossingD7Time": 303.6811903982426,
            "crossingD6Time": 304.4474643920068,
            "crossingD5Time": 304.83711279761908,
            "crossingD4Time": 305.1714678925737,
            "crossingD3Time": 305.5192593962585,
            "crossingD2Time": 305.8958205924036,
            "crossingD1Time": 306.66123139172336,
            "vibrationFiredTime": 303.6811903982426,
            "responseTime": 304.0432416950113,
            "responded": true,
            "reactionTimeMs": 362.0513000488281,
            "vibrationDeviceName": "None"
        },
        {
            "definition": {
                "trialId": "B1_T52",
                "blockIndex": 0,
                "trialIndex": 51,
                "isPractice": false,
                "modality": 2,
                "speed": 1,
                "width": 1,
                "vibrationStage": 5
            },
            "trialStartTime": 308.19209609552157,
            "loomOnsetTime": 308.19209609552157,
            "crossingD7Time": 308.40143959750568,
            "crossingD6Time": 309.16684589710885,
            "crossingD5Time": 309.55649499716557,
            "crossingD4Time": 309.89053659297056,
            "crossingD3Time": 310.23854629393426,
            "crossingD2Time": 310.6144448979592,
            "crossingD1Time": 311.39407509212017,
            "vibrationFiredTime": 310.6144448979592,
            "responseTime": 310.9485928925737,
            "responded": true,
            "reactionTimeMs": 334.1479797363281,
            "vibrationDeviceName": "None"
        },
        {
            "definition": {
                "trialId": "B1_T53",
                "blockIndex": 0,
                "trialIndex": 52,
                "isPractice": false,
                "modality": 0,
                "speed": 0,
                "width": 0,
                "vibrationStage": -1
            },
            "trialStartTime": 312.9113759920635,
            "loomOnsetTime": 312.9113759920635,
            "crossingD7Time": 313.12010819161,
            "crossingD6Time": 313.3711207979025,
            "crossingD5Time": 313.4958214923469,
            "crossingD4Time": 313.6075436933106,
            "crossingD3Time": 313.7194090915533,
            "crossingD2Time": 313.85881629818598,
            "crossingD1Time": 314.10886829648526,
            "vibrationFiredTime": NaN,
            "responseTime": NaN,
            "responded": false,
            "reactionTimeMs": NaN,
            "vibrationDeviceName": "None"
        },
        {
            "definition": {
                "trialId": "B1_T54",
                "blockIndex": 0,
                "trialIndex": 53,
                "isPractice": false,
                "modality": 1,
                "speed": 1,
                "width": 0,
                "vibrationStage": 5
            },
            "trialStartTime": 317.42183819444446,
            "loomOnsetTime": NaN,
            "crossingD7Time": NaN,
            "crossingD6Time": NaN,
            "crossingD5Time": NaN,
            "crossingD4Time": NaN,
            "crossingD3Time": NaN,
            "crossingD2Time": NaN,
            "crossingD1Time": NaN,
            "vibrationFiredTime": 319.6496507936508,
            "responseTime": 320.08166519274377,
            "responded": true,
            "reactionTimeMs": 432.014404296875,
            "vibrationDeviceName": "None"
        },
        {
            "definition": {
                "trialId": "B1_T55",
                "blockIndex": 0,
                "trialIndex": 54,
                "isPractice": false,
                "modality": 2,
                "speed": 1,
                "width": 0,
                "vibrationStage": 1
            },
            "trialStartTime": 321.93337859268709,
            "loomOnsetTime": 321.93337859268709,
            "crossingD7Time": 322.14226799178007,
            "crossingD6Time": 322.9077472930839,
            "crossingD5Time": 323.29728499858279,
            "crossingD4Time": 323.6315031958617,
            "crossingD3Time": 323.97949869614515,
            "crossingD2Time": 324.3551799957483,
            "crossingD1Time": 325.12129349489796,
            "vibrationFiredTime": 322.9077472930839,
            "responseTime": 323.2835847930839,
            "responded": true,
            "reactionTimeMs": 375.8374938964844,
            "vibrationDeviceName": "None"
        },
        {
            "definition": {
                "trialId": "B1_T56",
                "blockIndex": 0,
                "trialIndex": 55,
                "isPractice": false,
                "modality": 1,
                "speed": 0,
                "width": 1,
                "vibrationStage": 3
            },
            "trialStartTime": 326.6531133928571,
            "loomOnsetTime": NaN,
            "crossingD7Time": NaN,
            "crossingD6Time": NaN,
            "crossingD5Time": NaN,
            "crossingD4Time": NaN,
            "crossingD3Time": NaN,
            "crossingD2Time": NaN,
            "crossingD1Time": NaN,
            "vibrationFiredTime": 327.15439159580498,
            "responseTime": 327.4885928925737,
            "responded": true,
            "reactionTimeMs": 334.2012939453125,
            "vibrationDeviceName": "None"
        },
        {
            "definition": {
                "trialId": "B1_T57",
                "blockIndex": 0,
                "trialIndex": 56,
                "isPractice": false,
                "modality": 1,
                "speed": 0,
                "width": 0,
                "vibrationStage": 4
            },
            "trialStartTime": 331.1643839923469,
            "loomOnsetTime": NaN,
            "crossingD7Time": NaN,
            "crossingD6Time": NaN,
            "crossingD5Time": NaN,
            "crossingD4Time": NaN,
            "crossingD3Time": NaN,
            "crossingD2Time": NaN,
            "crossingD1Time": NaN,
            "vibrationFiredTime": 331.79091329365078,
            "responseTime": 332.0974196924603,
            "responded": true,
            "reactionTimeMs": 306.50640869140627,
            "vibrationDeviceName": "None"
        },
        {
            "definition": {
                "trialId": "B1_T58",
                "blockIndex": 0,
                "trialIndex": 57,
                "isPractice": false,
                "modality": 0,
                "speed": 1,
                "width": 0,
                "vibrationStage": -1
            },
            "trialStartTime": 335.6747466978458,
            "loomOnsetTime": 335.6747466978458,
            "crossingD7Time": 335.8834894982993,
            "crossingD6Time": 336.6496237953515,
            "crossingD5Time": 337.039753295068,
            "crossingD4Time": 337.3735190972222,
            "crossingD3Time": 337.7215639951814,
            "crossingD2Time": 338.0976113945578,
            "crossingD1Time": 338.863307093254,
            "vibrationFiredTime": NaN,
            "responseTime": NaN,
            "responded": false,
            "reactionTimeMs": NaN,
            "vibrationDeviceName": "None"
        },
        {
            "definition": {
                "trialId": "B1_T59",
                "blockIndex": 0,
                "trialIndex": 58,
                "isPractice": false,
                "modality": 0,
                "speed": 1,
                "width": 0,
                "vibrationStage": -1
            },
            "trialStartTime": 340.3944948979592,
            "loomOnsetTime": 340.3944948979592,
            "crossingD7Time": 340.6027778982426,
            "crossingD6Time": 341.36933389314057,
            "crossingD5Time": 341.75858319160997,
            "crossingD4Time": 342.0929172973356,
            "crossingD3Time": 342.4406933956916,
            "crossingD2Time": 342.8172483985261,
            "crossingD1Time": 343.5828512967687,
            "vibrationFiredTime": NaN,
            "responseTime": NaN,
            "responded": false,
            "reactionTimeMs": NaN,
            "vibrationDeviceName": "None"
        },
        {
            "definition": {
                "trialId": "B1_T60",
                "blockIndex": 0,
                "trialIndex": 59,
                "isPractice": false,
                "modality": 1,
                "speed": 0,
                "width": 1,
                "vibrationStage": 0
            },
            "trialStartTime": 345.1139786918934,
            "loomOnsetTime": NaN,
            "crossingD7Time": NaN,
            "crossingD6Time": NaN,
            "crossingD5Time": NaN,
            "crossingD4Time": NaN,
            "crossingD3Time": NaN,
            "crossingD2Time": NaN,
            "crossingD1Time": NaN,
            "vibrationFiredTime": 345.1139786918934,
            "responseTime": 351.6284773951247,
            "responded": true,
            "reactionTimeMs": 6514.49853515625,
            "vibrationDeviceName": "None"
        },
        {
            "definition": {
                "trialId": "B1_T61",
                "blockIndex": 0,
                "trialIndex": 60,
                "isPractice": false,
                "modality": 2,
                "speed": 0,
                "width": 1,
                "vibrationStage": 0
            },
            "trialStartTime": 353.13200639172336,
            "loomOnsetTime": 353.13200639172336,
            "crossingD7Time": 353.3411398951247,
            "crossingD6Time": 353.5918916950113,
            "crossingD5Time": 353.71682429846939,
            "crossingD4Time": 353.8284731930272,
            "crossingD3Time": 353.95338349631518,
            "crossingD2Time": 354.07893869756239,
            "crossingD1Time": 354.32977679280045,
            "vibrationFiredTime": 353.3411398951247,
            "responseTime": 353.8006047973356,
            "responded": true,
            "reactionTimeMs": 459.46490478515627,
            "vibrationDeviceName": "None"
        },
        {
            "definition": {
                "trialId": "B1_T62",
                "blockIndex": 0,
                "trialIndex": 61,
                "isPractice": false,
                "modality": 2,
                "speed": 1,
                "width": 1,
                "vibrationStage": 5
            },
            "trialStartTime": 357.6429589923469,
            "loomOnsetTime": 357.6429589923469,
            "crossingD7Time": 357.85235549178005,
            "crossingD6Time": 358.6174539965986,
            "crossingD5Time": 359.00750909863947,
            "crossingD4Time": 359.3417486961451,
            "crossingD3Time": 359.68945929705219,
            "crossingD2Time": 360.06568629535146,
            "crossingD1Time": 360.84552419217689,
            "vibrationFiredTime": 360.06568629535146,
            "responseTime": 360.3578065972222,
            "responded": true,
            "reactionTimeMs": 292.12030029296877,
            "vibrationDeviceName": "None"
        },
        {
            "definition": {
                "trialId": "B1_T63",
                "blockIndex": 0,
                "trialIndex": 62,
                "isPractice": false,
                "modality": 2,
                "speed": 1,
                "width": 0,
                "vibrationStage": 0
            },
            "trialStartTime": 362.36214389172337,
            "loomOnsetTime": 362.36214389172337,
            "crossingD7Time": 362.5716114937642,
            "crossingD6Time": 363.33729719387756,
            "crossingD5Time": 363.72701739654198,
            "crossingD4Time": 364.061302196712,
            "crossingD3Time": 364.40907039399095,
            "crossingD2Time": 364.78528799603176,
            "crossingD1Time": 365.56444159580499,
            "vibrationFiredTime": 362.5716114937642,
            "responseTime": 362.94746099773246,
            "responded": true,
            "reactionTimeMs": 375.8495178222656,
            "vibrationDeviceName": "None"
        },
        {
            "definition": {
                "trialId": "B1_T64",
                "blockIndex": 0,
                "trialIndex": 63,
                "isPractice": false,
                "modality": 2,
                "speed": 1,
                "width": 0,
                "vibrationStage": 0
            },
            "trialStartTime": 367.081950297619,
            "loomOnsetTime": 367.081950297619,
            "crossingD7Time": 367.2908639951814,
            "crossingD6Time": 368.0568167942177,
            "crossingD5Time": 368.4465041950113,
            "crossingD4Time": 368.78050359268709,
            "crossingD3Time": 369.12860099206349,
            "crossingD2Time": 369.50461889172336,
            "crossingD1Time": 370.27017879818598,
            "vibrationFiredTime": 367.2908639951814,
            "responseTime": 371.85807619756238,
            "responded": true,
            "reactionTimeMs": 4567.21240234375,
            "vibrationDeviceName": "None"
        },
        {
            "definition": {
                "trialId": "B1_T65",
                "blockIndex": 0,
                "trialIndex": 64,
                "isPractice": false,
                "modality": 2,
                "speed": 1,
                "width": 1,
                "vibrationStage": 1
            },
            "trialStartTime": 373.3613262967687,
            "loomOnsetTime": 373.3613262967687,
            "crossingD7Time": 373.5694248937075,
            "crossingD6Time": 374.3358658942744,
            "crossingD5Time": 374.72515409580498,
            "crossingD4Time": 375.0599014951814,
            "crossingD3Time": 375.4075019982993,
            "crossingD2Time": 375.7839042942177,
            "crossingD1Time": 376.54924879535147,
            "vibrationFiredTime": 374.3358658942744,
            "responseTime": 374.69741169217687,
            "responded": true,
            "reactionTimeMs": 361.5458068847656,
            "vibrationDeviceName": "None"
        },
        {
            "definition": {
                "trialId": "B1_T66",
                "blockIndex": 0,
                "trialIndex": 65,
                "isPractice": false,
                "modality": 2,
                "speed": 1,
                "width": 0,
                "vibrationStage": 4
            },
            "trialStartTime": 378.0807685941043,
            "loomOnsetTime": 378.0807685941043,
            "crossingD7Time": 378.28965079365079,
            "crossingD6Time": 379.05524039824265,
            "crossingD5Time": 379.44484929846939,
            "crossingD4Time": 379.7794560941043,
            "crossingD3Time": 380.1272236961451,
            "crossingD2Time": 380.50329279336736,
            "crossingD1Time": 381.2691249929138,
            "vibrationFiredTime": 380.1272236961451,
            "responseTime": 380.43342769274377,
            "responded": true,
            "reactionTimeMs": 306.2040100097656,
            "vibrationDeviceName": "None"
        },
        {
            "definition": {
                "trialId": "B1_T67",
                "blockIndex": 0,
                "trialIndex": 66,
                "isPractice": false,
                "modality": 2,
                "speed": 1,
                "width": 0,
                "vibrationStage": 1
            },
            "trialStartTime": 382.8005716978458,
            "loomOnsetTime": 382.8005716978458,
            "crossingD7Time": 383.00901309523808,
            "crossingD6Time": 383.77476869331067,
            "crossingD5Time": 384.1645719954648,
            "crossingD4Time": 384.498754095805,
            "crossingD3Time": 384.84667989654198,
            "crossingD2Time": 385.2226361961451,
            "crossingD1Time": 385.988831292517,
            "vibrationFiredTime": 383.77476869331067,
            "responseTime": 384.0670366921768,
            "responded": true,
            "reactionTimeMs": 292.26800537109377,
            "vibrationDeviceName": "None"
        },
        {
            "definition": {
                "trialId": "B1_T68",
                "blockIndex": 0,
                "trialIndex": 67,
                "isPractice": false,
                "modality": 2,
                "speed": 1,
                "width": 0,
                "vibrationStage": 5
            },
            "trialStartTime": 387.5200394982993,
            "loomOnsetTime": 387.5200394982993,
            "crossingD7Time": 387.7290264951814,
            "crossingD6Time": 388.49493479308389,
            "crossingD5Time": 388.885312797619,
            "crossingD4Time": 389.2192683956916,
            "crossingD3Time": 389.566268792517,
            "crossingD2Time": 389.942352196712,
            "crossingD1Time": 390.7083856930272,
            "vibrationFiredTime": 389.942352196712,
            "responseTime": 390.2348588931406,
            "responded": true,
            "reactionTimeMs": 292.5066833496094,
            "vibrationDeviceName": "None"
        },
        {
            "definition": {
                "trialId": "B1_T69",
                "blockIndex": 0,
                "trialIndex": 68,
                "isPractice": false,
                "modality": 2,
                "speed": 0,
                "width": 1,
                "vibrationStage": 5
            },
            "trialStartTime": 392.2396166950113,
            "loomOnsetTime": 392.2396166950113,
            "crossingD7Time": 392.44840089285716,
            "crossingD6Time": 392.69926889172339,
            "crossingD5Time": 392.82440469812925,
            "crossingD4Time": 392.9358056972789,
            "crossingD3Time": 393.0609632936508,
            "crossingD2Time": 393.1863537981859,
            "crossingD1Time": 393.43683719529477,
            "vibrationFiredTime": 393.1863537981859,
            "responseTime": 393.451065795068,
            "responded": true,
            "reactionTimeMs": 264.7120056152344,
            "vibrationDeviceName": "None"
        },
        {
            "definition": {
                "trialId": "B1_T70",
                "blockIndex": 0,
                "trialIndex": 69,
                "isPractice": false,
                "modality": 2,
                "speed": 0,
                "width": 0,
                "vibrationStage": 5
            },
            "trialStartTime": 396.7503845946712,
            "loomOnsetTime": 396.7503845946712,
            "crossingD7Time": 396.9590979946145,
            "crossingD6Time": 397.2099038973923,
            "crossingD5Time": 397.3358659934807,
            "crossingD4Time": 397.44636109693877,
            "crossingD3Time": 397.55838639455785,
            "crossingD2Time": 397.6972363945578,
            "crossingD1Time": 397.94806159297056,
            "vibrationFiredTime": 397.6972363945578,
            "responseTime": 397.9759113945578,
            "responded": true,
            "reactionTimeMs": 278.67498779296877,
            "vibrationDeviceName": "None"
        },
        {
            "definition": {
                "trialId": "B1_T71",
                "blockIndex": 0,
                "trialIndex": 70,
                "isPractice": false,
                "modality": 1,
                "speed": 1,
                "width": 0,
                "vibrationStage": 0
            },
            "trialStartTime": 401.2610979946145,
            "loomOnsetTime": NaN,
            "crossingD7Time": NaN,
            "crossingD6Time": NaN,
            "crossingD5Time": NaN,
            "crossingD4Time": NaN,
            "crossingD3Time": NaN,
            "crossingD2Time": NaN,
            "crossingD1Time": NaN,
            "vibrationFiredTime": 401.2610979946145,
            "responseTime": 406.00880799319727,
            "responded": true,
            "reactionTimeMs": 4747.7099609375,
            "vibrationDeviceName": "None"
        },
        {
            "definition": {
                "trialId": "B1_T72",
                "blockIndex": 0,
                "trialIndex": 71,
                "isPractice": false,
                "modality": 1,
                "speed": 1,
                "width": 0,
                "vibrationStage": 3
            },
            "trialStartTime": 407.5122409934807,
            "loomOnsetTime": NaN,
            "crossingD7Time": NaN,
            "crossingD6Time": NaN,
            "crossingD5Time": NaN,
            "crossingD4Time": NaN,
            "crossingD3Time": NaN,
            "crossingD2Time": NaN,
            "crossingD1Time": NaN,
            "vibrationFiredTime": 409.015465497449,
            "responseTime": 409.55872159863949,
            "responded": true,
            "reactionTimeMs": 543.256103515625,
            "vibrationDeviceName": "None"
        },
        {
            "definition": {
                "trialId": "B1_T73",
                "blockIndex": 0,
                "trialIndex": 72,
                "isPractice": false,
                "modality": 2,
                "speed": 0,
                "width": 1,
                "vibrationStage": 2
            },
            "trialStartTime": 412.02271869331067,
            "loomOnsetTime": 412.02271869331067,
            "crossingD7Time": 412.2312027919501,
            "crossingD6Time": 412.4819729946145,
            "crossingD5Time": 412.60731799178,
            "crossingD4Time": 412.71884349489798,
            "crossingD3Time": 412.8438621952948,
            "crossingD2Time": 412.9697391935941,
            "crossingD1Time": 413.2204343962585,
            "vibrationFiredTime": 412.60731799178,
            "responseTime": 412.9557797973356,
            "responded": true,
            "reactionTimeMs": 348.4617919921875,
            "vibrationDeviceName": "None"
        },
        {
            "definition": {
                "trialId": "B1_T74",
                "blockIndex": 0,
                "trialIndex": 73,
                "isPractice": false,
                "modality": 2,
                "speed": 1,
                "width": 1,
                "vibrationStage": 3
            },
            "trialStartTime": 416.533615795068,
            "loomOnsetTime": 416.533615795068,
            "crossingD7Time": 416.7426315972222,
            "crossingD6Time": 417.5088011975623,
            "crossingD5Time": 417.89877679280047,
            "crossingD4Time": 418.23284619472789,
            "crossingD3Time": 418.5806255952381,
            "crossingD2Time": 418.95643839285716,
            "crossingD1Time": 419.72211289682539,
            "vibrationFiredTime": 418.23284619472789,
            "responseTime": 418.59452559523808,
            "responded": true,
            "reactionTimeMs": 361.6794128417969,
            "vibrationDeviceName": "None"
        },
        {
            "definition": {
                "trialId": "B1_T75",
                "blockIndex": 0,
                "trialIndex": 74,
                "isPractice": false,
                "modality": 1,
                "speed": 0,
                "width": 0,
                "vibrationStage": 0
            },
            "trialStartTime": 421.2539045918367,
            "loomOnsetTime": NaN,
            "crossingD7Time": NaN,
            "crossingD6Time": NaN,
            "crossingD5Time": NaN,
            "crossingD4Time": NaN,
            "crossingD3Time": NaN,
            "crossingD2Time": NaN,
            "crossingD1Time": NaN,
            "vibrationFiredTime": 421.2539045918367,
            "responseTime": 425.87615749716556,
            "responded": true,
            "reactionTimeMs": 4622.2529296875,
            "vibrationDeviceName": "None"
        },
        {
            "definition": {
                "trialId": "B1_T76",
                "blockIndex": 0,
                "trialIndex": 75,
                "isPractice": false,
                "modality": 0,
                "speed": 0,
                "width": 1,
                "vibrationStage": -1
            },
            "trialStartTime": 427.3793440972222,
            "loomOnsetTime": 427.3793440972222,
            "crossingD7Time": 427.58806569586167,
            "crossingD6Time": 427.8390458971088,
            "crossingD5Time": 427.9638389951814,
            "crossingD4Time": 428.0757971938775,
            "crossingD3Time": 428.2007747945011,
            "crossingD2Time": 428.32612669359409,
            "crossingD1Time": 428.576564994331,
            "vibrationFiredTime": NaN,
            "responseTime": NaN,
            "responded": false,
            "reactionTimeMs": NaN,
            "vibrationDeviceName": "None"
        },
        {
            "definition": {
                "trialId": "B1_T77",
                "blockIndex": 0,
                "trialIndex": 76,
                "isPractice": false,
                "modality": 0,
                "speed": 1,
                "width": 0,
                "vibrationStage": -1
            },
            "trialStartTime": 431.8907533942744,
            "loomOnsetTime": 431.8907533942744,
            "crossingD7Time": 432.09962689200679,
            "crossingD6Time": 432.8653602962018,
            "crossingD5Time": 433.25510709325399,
            "crossingD4Time": 433.5892616921769,
            "crossingD3Time": 433.9374511975623,
            "crossingD2Time": 434.31323349631517,
            "crossingD1Time": 435.09251889172335,
            "vibrationFiredTime": NaN,
            "responseTime": NaN,
            "responded": false,
            "reactionTimeMs": NaN,
            "vibrationDeviceName": "None"
        },
        {
            "definition": {
                "trialId": "B1_T78",
                "blockIndex": 0,
                "trialIndex": 77,
                "isPractice": false,
                "modality": 2,
                "speed": 1,
                "width": 1,
                "vibrationStage": 6
            },
            "trialStartTime": 436.60984719387758,
            "loomOnsetTime": 436.60984719387758,
            "crossingD7Time": 436.81831369756238,
            "crossingD6Time": 437.58389589710887,
            "crossingD5Time": 437.9742038973923,
            "crossingD4Time": 438.3081773951247,
            "crossingD3Time": 438.65621499433106,
            "crossingD2Time": 439.0317639951814,
            "crossingD1Time": 439.79759299178007,
            "vibrationFiredTime": 439.79759299178007,
            "responseTime": 440.063502196712,
            "responded": true,
            "reactionTimeMs": 265.9092102050781,
            "vibrationDeviceName": "None"
        },
        {
            "definition": {
                "trialId": "B1_T79",
                "blockIndex": 0,
                "trialIndex": 78,
                "isPractice": false,
                "modality": 1,
                "speed": 1,
                "width": 1,
                "vibrationStage": 5
            },
            "trialStartTime": 441.55185439342406,
            "loomOnsetTime": NaN,
            "crossingD7Time": NaN,
            "crossingD6Time": NaN,
            "crossingD5Time": NaN,
            "crossingD4Time": NaN,
            "crossingD3Time": NaN,
            "crossingD2Time": NaN,
            "crossingD1Time": NaN,
            "vibrationFiredTime": 443.77911839569159,
            "responseTime": 444.1411630952381,
            "responded": true,
            "reactionTimeMs": 362.0447082519531,
            "vibrationDeviceName": "None"
        },
        {
            "definition": {
                "trialId": "B1_T80",
                "blockIndex": 0,
                "trialIndex": 79,
                "isPractice": false,
                "modality": 0,
                "speed": 0,
                "width": 0,
                "vibrationStage": -1
            },
            "trialStartTime": 446.062677997449,
            "loomOnsetTime": 446.062677997449,
            "crossingD7Time": 446.2716751984127,
            "crossingD6Time": 446.5219433956916,
            "crossingD5Time": 446.64760619331067,
            "crossingD4Time": 446.75903469387756,
            "crossingD3Time": 446.88439099348076,
            "crossingD2Time": 447.01034079506806,
            "crossingD1Time": 447.26021869331069,
            "vibrationFiredTime": NaN,
            "responseTime": NaN,
            "responded": false,
            "reactionTimeMs": NaN,
            "vibrationDeviceName": "None"
        },
        {
            "definition": {
                "trialId": "B1_T81",
                "blockIndex": 0,
                "trialIndex": 80,
                "isPractice": false,
                "modality": 0,
                "speed": 1,
                "width": 1,
                "vibrationStage": -1
            },
            "trialStartTime": 450.5736131944444,
            "loomOnsetTime": 450.5736131944444,
            "crossingD7Time": 450.78220159438777,
            "crossingD6Time": 451.5481088931406,
            "crossingD5Time": 451.93816499433106,
            "crossingD4Time": 452.2719490929705,
            "crossingD3Time": 452.620179095805,
            "crossingD2Time": 452.9958734977324,
            "crossingD1Time": 453.7617296981292,
            "vibrationFiredTime": NaN,
            "responseTime": NaN,
            "responded": false,
            "reactionTimeMs": NaN,
            "vibrationDeviceName": "None"
        },
        {
            "definition": {
                "trialId": "B1_T82",
                "blockIndex": 0,
                "trialIndex": 81,
                "isPractice": false,
                "modality": 2,
                "speed": 1,
                "width": 0,
                "vibrationStage": 5
            },
            "trialStartTime": 455.2927478954081,
            "loomOnsetTime": 455.2927478954081,
            "crossingD7Time": 455.50170969387758,
            "crossingD6Time": 456.26746959325399,
            "crossingD5Time": 456.65740179280047,
            "crossingD4Time": 456.9915999929138,
            "crossingD3Time": 457.3397394982993,
            "crossingD2Time": 457.71572709750566,
            "crossingD1Time": 458.4815114937642,
            "vibrationFiredTime": 457.71572709750566,
            "responseTime": 455.52333599773245,
            "responded": true,
            "reactionTimeMs": -2192.39111328125,
            "vibrationDeviceName": "None"
        },
        {
            "definition": {
                "trialId": "B1_T83",
                "blockIndex": 0,
                "trialIndex": 82,
                "isPractice": false,
                "modality": 0,
                "speed": 0,
                "width": 1,
                "vibrationStage": -1
            },
            "trialStartTime": 460.01274379251699,
            "loomOnsetTime": 460.01274379251699,
            "crossingD7Time": 460.2217699971655,
            "crossingD6Time": 460.47231329365078,
            "crossingD5Time": 460.5973296981292,
            "crossingD4Time": 460.7093802933673,
            "crossingD3Time": 460.83422659438778,
            "crossingD2Time": 460.95950179280046,
            "crossingD1Time": 461.21014789540819,
            "vibrationFiredTime": NaN,
            "responseTime": NaN,
            "responded": false,
            "reactionTimeMs": NaN,
            "vibrationDeviceName": "None"
        },
        {
            "definition": {
                "trialId": "B1_T84",
                "blockIndex": 0,
                "trialIndex": 83,
                "isPractice": false,
                "modality": 2,
                "speed": 0,
                "width": 1,
                "vibrationStage": 0
            },
            "trialStartTime": 464.5231561933106,
            "loomOnsetTime": 464.5231561933106,
            "crossingD7Time": 464.7317938917233,
            "crossingD6Time": 464.9826632936508,
            "crossingD5Time": 465.10794789540815,
            "crossingD4Time": 465.2197139951814,
            "crossingD3Time": 465.3444696924603,
            "crossingD2Time": 465.46990859552155,
            "crossingD1Time": 465.7202431972789,
            "vibrationFiredTime": 464.7317938917233,
            "responseTime": 465.01050479733558,
            "responded": true,
            "reactionTimeMs": 278.7109069824219,
            "vibrationDeviceName": "None"
        },
        {
            "definition": {
                "trialId": "B1_T85",
                "blockIndex": 0,
                "trialIndex": 84,
                "isPractice": false,
                "modality": 0,
                "speed": 0,
                "width": 0,
                "vibrationStage": -1
            },
            "trialStartTime": 469.03409329648528,
            "loomOnsetTime": 469.03409329648528,
            "crossingD7Time": 469.2423921981292,
            "crossingD6Time": 469.49337079790248,
            "crossingD5Time": 469.61825509495466,
            "crossingD4Time": 469.7298724985827,
            "crossingD3Time": 469.8549122945011,
            "crossingD2Time": 469.9803794926304,
            "crossingD1Time": 470.2312406958617,
            "vibrationFiredTime": NaN,
            "responseTime": NaN,
            "responded": false,
            "reactionTimeMs": NaN,
            "vibrationDeviceName": "None"
        },
        {
            "definition": {
                "trialId": "B1_T86",
                "blockIndex": 0,
                "trialIndex": 85,
                "isPractice": false,
                "modality": 1,
                "speed": 1,
                "width": 1,
                "vibrationStage": 4
            },
            "trialStartTime": 473.54439129818595,
            "loomOnsetTime": NaN,
            "crossingD7Time": NaN,
            "crossingD6Time": NaN,
            "crossingD5Time": NaN,
            "crossingD4Time": NaN,
            "crossingD3Time": NaN,
            "crossingD2Time": NaN,
            "crossingD1Time": NaN,
            "vibrationFiredTime": 475.39608299319726,
            "responseTime": 475.6744105938208,
            "responded": true,
            "reactionTimeMs": 278.3276062011719,
            "vibrationDeviceName": "None"
        },
        {
            "definition": {
                "trialId": "B1_T87",
                "blockIndex": 0,
                "trialIndex": 86,
                "isPractice": false,
                "modality": 2,
                "speed": 1,
                "width": 0,
                "vibrationStage": 4
            },
            "trialStartTime": 478.06913099489796,
            "loomOnsetTime": 478.06913099489796,
            "crossingD7Time": 478.27780629251699,
            "crossingD6Time": 479.0438232922335,
            "crossingD5Time": 479.4335080924036,
            "crossingD4Time": 479.7675143920068,
            "crossingD3Time": 480.11550539257368,
            "crossingD2Time": 480.49158129251699,
            "crossingD1Time": 481.25695929705219,
            "vibrationFiredTime": 480.11550539257368,
            "responseTime": 480.50540939625849,
            "responded": true,
            "reactionTimeMs": 389.90399169921877,
            "vibrationDeviceName": "None"
        },
        {
            "definition": {
                "trialId": "B1_T88",
                "blockIndex": 0,
                "trialIndex": 87,
                "isPractice": false,
                "modality": 2,
                "speed": 0,
                "width": 1,
                "vibrationStage": 1
            },
            "trialStartTime": 482.7889891935941,
            "loomOnsetTime": 482.7889891935941,
            "crossingD7Time": 482.99748679846939,
            "crossingD6Time": 483.2482791950113,
            "crossingD5Time": 483.37405999858279,
            "crossingD4Time": 483.4848803925737,
            "crossingD3Time": 483.61004399801586,
            "crossingD2Time": 483.73555599489796,
            "crossingD1Time": 483.98588799603177,
            "vibrationFiredTime": 483.2482791950113,
            "responseTime": 483.62385549178006,
            "responded": true,
            "reactionTimeMs": 375.5762939453125,
            "vibrationDeviceName": "None"
        },
        {
            "definition": {
                "trialId": "B1_T89",
                "blockIndex": 0,
                "trialIndex": 88,
                "isPractice": false,
                "modality": 2,
                "speed": 1,
                "width": 0,
                "vibrationStage": 3
            },
            "trialStartTime": 487.29940159438777,
            "loomOnsetTime": 487.29940159438777,
            "crossingD7Time": 487.50895639172338,
            "crossingD6Time": 488.2736113945578,
            "crossingD5Time": 488.6639436933106,
            "crossingD4Time": 488.9979058956916,
            "crossingD3Time": 489.3460519982993,
            "crossingD2Time": 489.7215251984127,
            "crossingD1Time": 490.5014869968821,
            "vibrationFiredTime": 488.9979058956916,
            "responseTime": 489.2759795918367,
            "responded": true,
            "reactionTimeMs": 278.0736999511719,
            "vibrationDeviceName": "None"
        },
        {
            "definition": {
                "trialId": "B1_T90",
                "blockIndex": 0,
                "trialIndex": 89,
                "isPractice": false,
                "modality": 0,
                "speed": 1,
                "width": 1,
                "vibrationStage": -1
            },
            "trialStartTime": 492.01895779478459,
            "loomOnsetTime": 492.01895779478459,
            "crossingD7Time": 492.2274102962018,
            "crossingD6Time": 492.99359129818597,
            "crossingD5Time": 493.3831016935941,
            "crossingD4Time": 493.71765169359409,
            "crossingD3Time": 494.0654093962585,
            "crossingD2Time": 494.44104489795918,
            "crossingD1Time": 495.2068655966553,
            "vibrationFiredTime": NaN,
            "responseTime": NaN,
            "responded": false,
            "reactionTimeMs": NaN,
            "vibrationDeviceName": "None"
        },
        {
            "definition": {
                "trialId": "B1_T91",
                "blockIndex": 0,
                "trialIndex": 90,
                "isPractice": false,
                "modality": 0,
                "speed": 1,
                "width": 1,
                "vibrationStage": -1
            },
            "trialStartTime": 496.7383379960317,
            "loomOnsetTime": 496.7383379960317,
            "crossingD7Time": 496.94783149801585,
            "crossingD6Time": 497.71315389739228,
            "crossingD5Time": 498.1030027919501,
            "crossingD4Time": 498.4368428925737,
            "crossingD3Time": 498.78566979166666,
            "crossingD2Time": 499.1610708971088,
            "crossingD1Time": 499.9269631944444,
            "vibrationFiredTime": NaN,
            "responseTime": NaN,
            "responded": false,
            "reactionTimeMs": NaN,
            "vibrationDeviceName": "None"
        },
        {
            "definition": {
                "trialId": "B1_T92",
                "blockIndex": 0,
                "trialIndex": 91,
                "isPractice": false,
                "modality": 2,
                "speed": 0,
                "width": 0,
                "vibrationStage": 4
            },
            "trialStartTime": 501.4581553925737,
            "loomOnsetTime": 501.4581553925737,
            "crossingD7Time": 501.66696709183676,
            "crossingD6Time": 501.91769669784579,
            "crossingD5Time": 502.0428193948413,
            "crossingD4Time": 502.15427309382087,
            "crossingD3Time": 502.2795588931406,
            "crossingD2Time": 502.40466209608845,
            "crossingD1Time": 502.65570039682538,
            "vibrationFiredTime": 502.2795588931406,
            "responseTime": 502.585963598356,
            "responded": true,
            "reactionTimeMs": 306.4046936035156,
            "vibrationDeviceName": "None"
        },
        {
            "definition": {
                "trialId": "B1_T93",
                "blockIndex": 0,
                "trialIndex": 92,
                "isPractice": false,
                "modality": 2,
                "speed": 1,
                "width": 1,
                "vibrationStage": 3
            },
            "trialStartTime": 505.9683144982993,
            "loomOnsetTime": 505.9683144982993,
            "crossingD7Time": 506.1773589923469,
            "crossingD6Time": 506.94327839427435,
            "crossingD5Time": 507.33329129818596,
            "crossingD4Time": 507.66716939484129,
            "crossingD3Time": 508.0152424957483,
            "crossingD2Time": 508.3912723922902,
            "crossingD1Time": 509.15686809807257,
            "vibrationFiredTime": 507.66716939484129,
            "responseTime": 507.959777196712,
            "responded": true,
            "reactionTimeMs": 292.6077880859375,
            "vibrationDeviceName": "None"
        },
        {
            "definition": {
                "trialId": "B1_T94",
                "blockIndex": 0,
                "trialIndex": 93,
                "isPractice": false,
                "modality": 1,
                "speed": 1,
                "width": 0,
                "vibrationStage": 6
            },
            "trialStartTime": 510.6886011975623,
            "loomOnsetTime": NaN,
            "crossingD7Time": NaN,
            "crossingD6Time": NaN,
            "crossingD5Time": NaN,
            "crossingD4Time": NaN,
            "crossingD3Time": NaN,
            "crossingD2Time": NaN,
            "crossingD1Time": NaN,
            "vibrationFiredTime": 513.6955855938209,
            "responseTime": 514.0298727962017,
            "responded": true,
            "reactionTimeMs": 334.2872009277344,
            "vibrationDeviceName": "None"
        },
        {
            "definition": {
                "trialId": "B1_T95",
                "blockIndex": 0,
                "trialIndex": 94,
                "isPractice": false,
                "modality": 2,
                "speed": 1,
                "width": 0,
                "vibrationStage": 4
            },
            "trialStartTime": 515.5334578939909,
            "loomOnsetTime": 515.5334578939909,
            "crossingD7Time": 515.7423566964286,
            "crossingD6Time": 516.5078650935374,
            "crossingD5Time": 516.8976745960885,
            "crossingD4Time": 517.2317294926304,
            "crossingD3Time": 517.580315497449,
            "crossingD2Time": 517.9556774943311,
            "crossingD1Time": 518.7217490929705,
            "vibrationFiredTime": 517.580315497449,
            "responseTime": 522.0907473922903,
            "responded": true,
            "reactionTimeMs": 4510.43212890625,
            "vibrationDeviceName": "None"
        },
        {
            "definition": {
                "trialId": "B1_T96",
                "blockIndex": 0,
                "trialIndex": 95,
                "isPractice": false,
                "modality": 2,
                "speed": 0,
                "width": 0,
                "vibrationStage": 3
            },
            "trialStartTime": 523.594276098356,
            "loomOnsetTime": 523.594276098356,
            "crossingD7Time": 523.8027817956349,
            "crossingD6Time": 524.0535762967687,
            "crossingD5Time": 524.1789221938775,
            "crossingD4Time": 524.2904044926304,
            "crossingD3Time": 524.4152527919501,
            "crossingD2Time": 524.5409549957483,
            "crossingD1Time": 524.7914300949546,
            "vibrationFiredTime": 524.2904044926304,
            "responseTime": 524.6105077947846,
            "responded": true,
            "reactionTimeMs": 320.1033020019531,
            "vibrationDeviceName": "None"
        },
        {
            "definition": {
                "trialId": "B1_T97",
                "blockIndex": 0,
                "trialIndex": 96,
                "isPractice": false,
                "modality": 2,
                "speed": 0,
                "width": 0,
                "vibrationStage": 6
            },
            "trialStartTime": 528.1051462939342,
            "loomOnsetTime": 528.1051462939342,
            "crossingD7Time": 528.3137073979592,
            "crossingD6Time": 528.5641725977891,
            "crossingD5Time": 528.6897352962018,
            "crossingD4Time": 528.8016840986394,
            "crossingD3Time": 528.9262392928005,
            "crossingD2Time": 529.051481292517,
            "crossingD1Time": 529.3020978954081,
            "vibrationFiredTime": 529.3020978954081,
            "responseTime": 529.6365484977324,
            "responded": true,
            "reactionTimeMs": 334.4505920410156,
            "vibrationDeviceName": "None"
        },
        {
            "definition": {
                "trialId": "B1_T98",
                "blockIndex": 0,
                "trialIndex": 97,
                "isPractice": false,
                "modality": 2,
                "speed": 1,
                "width": 1,
                "vibrationStage": 1
            },
            "trialStartTime": 532.6157399943311,
            "loomOnsetTime": 532.6157399943311,
            "crossingD7Time": 532.8246285926871,
            "crossingD6Time": 533.5904203939909,
            "crossingD5Time": 533.9799792942176,
            "crossingD4Time": 534.314072597789,
            "crossingD3Time": 534.6625791950113,
            "crossingD2Time": 535.0387386975623,
            "crossingD1Time": 535.8042938917233,
            "vibrationFiredTime": 533.5904203939909,
            "responseTime": 533.9799792942176,
            "responded": true,
            "reactionTimeMs": 389.55889892578127,
            "vibrationDeviceName": "None"
        },
        {
            "definition": {
                "trialId": "B1_T99",
                "blockIndex": 0,
                "trialIndex": 98,
                "isPractice": false,
                "modality": 2,
                "speed": 1,
                "width": 1,
                "vibrationStage": 4
            },
            "trialStartTime": 537.3353001984127,
            "loomOnsetTime": 537.3353001984127,
            "crossingD7Time": 537.5444230938208,
            "crossingD6Time": 538.3097973922902,
            "crossingD5Time": 538.699698398526,
            "crossingD4Time": 539.0336186933106,
            "crossingD3Time": 539.3820197916666,
            "crossingD2Time": 539.7578724985827,
            "crossingD1Time": 540.5235264951814,
            "vibrationFiredTime": 539.3820197916666,
            "responseTime": 539.6880900935374,
            "responded": true,
            "reactionTimeMs": 306.0703125,
            "vibrationDeviceName": "None"
        },
        {
            "definition": {
                "trialId": "B1_T100",
                "blockIndex": 0,
                "trialIndex": 99,
                "isPractice": false,
                "modality": 2,
                "speed": 1,
                "width": 0,
                "vibrationStage": 6
            },
            "trialStartTime": 542.054805194161,
            "loomOnsetTime": 542.054805194161,
            "crossingD7Time": 542.2637761975624,
            "crossingD6Time": 543.0289223922903,
            "crossingD5Time": 543.4193865929705,
            "crossingD4Time": 543.753377997449,
            "crossingD3Time": 544.1015363945578,
            "crossingD2Time": 544.4776541950113,
            "crossingD1Time": 545.2436092970521,
            "vibrationFiredTime": 545.2436092970521,
            "responseTime": 545.5030365929705,
            "responded": true,
            "reactionTimeMs": 259.42730712890627,
            "vibrationDeviceName": "None"
        },
        {
            "definition": {
                "trialId": "B1_T101",
                "blockIndex": 0,
                "trialIndex": 100,
                "isPractice": false,
                "modality": 2,
                "speed": 0,
                "width": 1,
                "vibrationStage": 2
            },
            "trialStartTime": 546.9978209963152,
            "loomOnsetTime": 546.9978209963152,
            "crossingD7Time": 547.2066651927438,
            "crossingD6Time": 547.4574857922336,
            "crossingD5Time": 547.5829092970521,
            "crossingD4Time": 547.6942733985261,
            "crossingD3Time": 547.8198417942176,
            "crossingD2Time": 547.9449044926304,
            "crossingD1Time": 548.1957786918935,
            "vibrationFiredTime": 547.5829092970521,
            "responseTime": 547.8755671981293,
            "responded": true,
            "reactionTimeMs": 292.65789794921877,
            "vibrationDeviceName": "None"
        },
        {
            "definition": {
                "trialId": "B1_T102",
                "blockIndex": 0,
                "trialIndex": 101,
                "isPractice": false,
                "modality": 0,
                "speed": 0,
                "width": 1,
                "vibrationStage": -1
            },
            "trialStartTime": 551.5094072916667,
            "loomOnsetTime": 551.5094072916667,
            "crossingD7Time": 551.7183507936508,
            "crossingD6Time": 551.9688920918367,
            "crossingD5Time": 552.0944927933673,
            "crossingD4Time": 552.2062307964852,
            "crossingD3Time": 552.3306481930272,
            "crossingD2Time": 552.4558761975624,
            "crossingD1Time": 552.7065738945578,
            "vibrationFiredTime": NaN,
            "responseTime": NaN,
            "responded": false,
            "reactionTimeMs": NaN,
            "vibrationDeviceName": "None"
        },
        {
            "definition": {
                "trialId": "B1_T103",
                "blockIndex": 0,
                "trialIndex": 102,
                "isPractice": false,
                "modality": 1,
                "speed": 0,
                "width": 1,
