{
    "metadata": {
        "participantId": "theo",
        "clinicianInitials": "",
        "sessionDate": "2026-07-09",
        "sessionId": "s1",
        "sessionNumber": 1,
        "ageYears": 0,
        "dominantHand": 0,
        "heightCm": 0.0,
        "shoulderWidthCm": 0.0,
        "subjectGroup": "",
        "hasDbs": false,
        "sessionType": 0,
        "dbsStatus": 0,
        "language": "",
        "eegEnabled": false,
        "emgEnabled": false,
        "heartRateBandEnabled": false,
        "eyeTrackingEnabled": false,
        "task1NumberOfBlocks": 3,
        "task1TrialsPerBlock": 154,
        "task1VtTrialsPerBlock": 84,
        "task1VisualOnlyTrialsPerBlock": 14,
        "task1TactileOnlyTrialsPerBlock": 56,
        "task1BreakDurationSeconds": 30.0,
        "task1NarrowOffsetCm": 0.0,
        "task1WideOffsetCm": 30.000001907348634,
        "task1LoomingSpeeds": [
            "slow",
            "fast"
        ],
        "task1PracticeVtOnlyTrials": 2,
        "task1PracticeVtVisualTrials": 4,
        "task2NumberOfBlocks": 0,
        "task2TrialsPerBlock": 0,
        "task2BreakDurationSeconds": 0.0,
        "task2HitOffsetCm": 0.0,
        "task2NearMissOffsetCm": 0.0,
        "task2MissOffsetCm": 0.0,
        "task2BallSpeeds": [],
        "clinicianNotes": ""
    },
    "timestamp": "2026-07-09T15:49:08.6764210+02:00",
    "totalTrials": 462,
    "results": [
        {
            "definition": {
                "trialId": "B1_T01",
                "blockIndex": 0,
                "trialIndex": 0,
                "isPractice": false,
                "modality": 2,
                "speed": 1,
                "width": 1,
                "vibrationStage": 3
            },
            "trialStartTime": 41.51932648809524,
            "loomOnsetTime": 41.51932648809524,
            "crossingD7Time": 41.51932648809524,
            "crossingD6Time": 42.160035189909297,
            "crossingD5Time": 42.48004968820862,
            "crossingD4Time": 42.758598887471659,
            "crossingD3Time": 43.050835990646259,
            "crossingD2Time": 43.37107718962585,
            "crossingD1Time": 44.01119618764172,
            "vibrationFiredTime": 42.758598887471659,
            "responseTime": 43.07871169217687,
            "responded": true,
            "reactionTimeMs": 320.11279296875,
            "vibrationDeviceName": "None"
        },
        {
            "definition": {
                "trialId": "B1_T02",
                "blockIndex": 0,
                "trialIndex": 1,
                "isPractice": false,
                "modality": 1,
                "speed": 1,
                "width": 1,
                "vibrationStage": 3
            },
            "trialStartTime": 45.23668898809524,
            "loomOnsetTime": NaN,
            "crossingD7Time": NaN,
            "crossingD6Time": NaN,
            "crossingD5Time": NaN,
            "crossingD4Time": NaN,
            "crossingD3Time": NaN,
            "crossingD2Time": NaN,
            "crossingD1Time": NaN,
            "vibrationFiredTime": 46.48998129251701,
            "responseTime": 46.7821972930839,
            "responded": true,
            "reactionTimeMs": 292.21600341796877,
            "vibrationDeviceName": "None"
        },
        {
            "definition": {
                "trialId": "B1_T03",
                "blockIndex": 0,
                "trialIndex": 2,
                "isPractice": false,
                "modality": 2,
                "speed": 1,
                "width": 1,
                "vibrationStage": 2
            },
            "trialStartTime": 48.95426699263038,
            "loomOnsetTime": 48.95426699263038,
            "crossingD7Time": 48.95426699263038,
            "crossingD6Time": 49.594038591269839,
            "crossingD5Time": 49.914710289115649,
            "crossingD4Time": 50.192819593253968,
            "crossingD3Time": 50.48550449263038,
            "crossingD2Time": 50.80559469246032,
            "crossingD1Time": 51.44617529053288,
            "vibrationFiredTime": 49.914710289115649,
            "responseTime": 50.206707390873017,
            "responded": true,
            "reactionTimeMs": 291.9971008300781,
            "vibrationDeviceName": "None"
        },
        {
            "definition": {
                "trialId": "B1_T04",
                "blockIndex": 0,
                "trialIndex": 3,
                "isPractice": false,
                "modality": 2,
                "speed": 0,
                "width": 1,
                "vibrationStage": 4
            },
            "trialStartTime": 52.67121949404762,
            "loomOnsetTime": 52.67121949404762,
            "crossingD7Time": 52.67121949404762,
            "crossingD6Time": 52.922079790249437,
            "crossingD5Time": 53.04715578939909,
            "crossingD4Time": 53.15866539115646,
            "crossingD3Time": 53.28410389030612,
            "crossingD2Time": 53.40969078798186,
            "crossingD1Time": 53.66026719104308,
            "vibrationFiredTime": 53.28410389030612,
            "responseTime": 53.54863679138322,
            "responded": true,
            "reactionTimeMs": 264.53289794921877,
            "vibrationDeviceName": "None"
        },
        {
            "definition": {
                "trialId": "B1_T05",
                "blockIndex": 0,
                "trialIndex": 4,
                "isPractice": false,
                "modality": 2,
                "speed": 0,
                "width": 1,
                "vibrationStage": 2
            },
            "trialStartTime": 56.38891269132653,
            "loomOnsetTime": 56.38891269132653,
            "crossingD7Time": 56.38891269132653,
            "crossingD6Time": 56.639651693594107,
            "crossingD5Time": 56.76504078798186,
            "crossingD4Time": 56.87642679280045,
            "crossingD3Time": 57.001725488945577,
            "crossingD2Time": 57.12738358843537,
            "crossingD1Time": 57.37766609268707,
            "vibrationFiredTime": 56.76504078798186,
            "responseTime": 57.001725488945577,
            "responded": true,
            "reactionTimeMs": 236.68470764160157,
            "vibrationDeviceName": "None"
        },
        {
            "definition": {
                "trialId": "B1_T06",
                "blockIndex": 0,
                "trialIndex": 5,
                "isPractice": false,
                "modality": 2,
                "speed": 0,
                "width": 1,
                "vibrationStage": 1
            },
            "trialStartTime": 60.106574589002267,
            "loomOnsetTime": 60.106574589002267,
            "crossingD7Time": 60.106574589002267,
            "crossingD6Time": 60.35701668792517,
            "crossingD5Time": 60.48222558815193,
            "crossingD4Time": 60.59352928713152,
            "crossingD3Time": 60.71896269132653,
            "crossingD2Time": 60.84417268990929,
            "crossingD1Time": 61.09496159297052,
            "vibrationFiredTime": 60.35701668792517,
            "responseTime": 60.64963839285714,
            "responded": true,
            "reactionTimeMs": 292.6217041015625,
            "vibrationDeviceName": "None"
        },
        {
            "definition": {
                "trialId": "B1_T07",
                "blockIndex": 0,
                "trialIndex": 6,
                "isPractice": false,
                "modality": 2,
                "speed": 1,
                "width": 1,
                "vibrationStage": 3
            },
            "trialStartTime": 63.82402468820862,
            "loomOnsetTime": 63.82402468820862,
            "crossingD7Time": 63.82402468820862,
            "crossingD6Time": 64.46477889030612,
            "crossingD5Time": 64.78496149376417,
            "crossingD4Time": 65.0632553925737,
            "crossingD3Time": 65.35561349206349,
            "crossingD2Time": 65.67588599064625,
            "crossingD1Time": 66.31663379393425,
            "vibrationFiredTime": 65.0632553925737,
            "responseTime": 65.30013049178004,
            "responded": true,
            "reactionTimeMs": 236.87510681152345,
            "vibrationDeviceName": "None"
        },
        {
            "definition": {
                "trialId": "B1_T08",
                "blockIndex": 0,
                "trialIndex": 7,
                "isPractice": false,
                "modality": 1,
                "speed": 1,
                "width": 1,
                "vibrationStage": 0
            },
            "trialStartTime": 67.54160758928572,
            "loomOnsetTime": NaN,
            "crossingD7Time": NaN,
            "crossingD6Time": NaN,
            "crossingD5Time": NaN,
            "crossingD4Time": NaN,
            "crossingD3Time": NaN,
            "crossingD2Time": NaN,
            "crossingD1Time": NaN,
            "vibrationFiredTime": 67.54160758928572,
            "responseTime": 73.04042039399093,
            "responded": true,
            "reactionTimeMs": 5498.81298828125,
            "vibrationDeviceName": "None"
        },
        {
            "definition": {
                "trialId": "B1_T09",
                "blockIndex": 0,
                "trialIndex": 8,
                "isPractice": false,
                "modality": 2,
                "speed": 1,
                "width": 1,
                "vibrationStage": 1
            },
            "trialStartTime": 74.25127368905895,
            "loomOnsetTime": 74.25127368905895,
            "crossingD7Time": 74.25127368905895,
            "crossingD6Time": 74.8918899872449,
            "crossingD5Time": 75.21186858701813,
            "crossingD4Time": 75.4898566893424,
            "crossingD3Time": 75.78224888747165,
            "crossingD2Time": 76.10265109126984,
            "crossingD1Time": 76.74307828798186,
            "vibrationFiredTime": 74.8918899872449,
            "responseTime": 75.22554929138322,
            "responded": true,
            "reactionTimeMs": 333.6593017578125,
            "vibrationDeviceName": "None"
        },
        {
            "definition": {
                "trialId": "B1_T10",
                "blockIndex": 0,
                "trialIndex": 9,
                "isPractice": false,
                "modality": 2,
                "speed": 1,
                "width": 1,
                "vibrationStage": 0
            },
            "trialStartTime": 77.96823849206349,
            "loomOnsetTime": 77.96823849206349,
            "crossingD7Time": 77.96823849206349,
            "crossingD6Time": 78.60851748866213,
            "crossingD5Time": 78.92871699263039,
            "crossingD4Time": 79.20741228741497,
            "crossingD3Time": 79.49985768849206,
            "crossingD2Time": 79.82004629393424,
            "crossingD1Time": 80.46056429280046,
            "vibrationFiredTime": 77.96823849206349,
            "responseTime": 80.0570158871882,
            "responded": true,
            "reactionTimeMs": 2088.77734375,
            "vibrationDeviceName": "None"
        },
        {
            "definition": {
                "trialId": "B1_T11",
                "blockIndex": 0,
                "trialIndex": 10,
                "isPractice": false,
                "modality": 2,
                "speed": 0,
                "width": 1,
                "vibrationStage": 4
            },
            "trialStartTime": 81.68595578939909,
            "loomOnsetTime": 81.68595578939909,
            "crossingD7Time": 81.68595578939909,
            "crossingD6Time": 81.93660768849206,
            "crossingD5Time": 82.06152808956915,
            "crossingD4Time": 82.1729441893424,
            "crossingD3Time": 82.2984266935941,
            "crossingD2Time": 82.42363479308389,
            "crossingD1Time": 82.6742735898526,
            "vibrationFiredTime": 82.2984266935941,
            "responseTime": 82.61866799178005,
            "responded": true,
            "reactionTimeMs": 320.2413024902344,
            "vibrationDeviceName": "None"
        },
        {
            "definition": {
                "trialId": "B1_T12",
                "blockIndex": 0,
                "trialIndex": 11,
                "isPractice": false,
                "modality": 1,
                "speed": 0,
                "width": 1,
                "vibrationStage": 6
            },
            "trialStartTime": 85.40314338860545,
            "loomOnsetTime": NaN,
            "crossingD7Time": NaN,
            "crossingD6Time": NaN,
            "crossingD5Time": NaN,
            "crossingD4Time": NaN,
            "crossingD3Time": NaN,
            "crossingD2Time": NaN,
            "crossingD1Time": NaN,
            "vibrationFiredTime": 86.40617349064626,
            "responseTime": 86.7256682893991,
            "responded": true,
            "reactionTimeMs": 319.49481201171877,
            "vibrationDeviceName": "None"
        },
        {
            "definition": {
                "trialId": "B1_T13",
                "blockIndex": 0,
                "trialIndex": 12,
                "isPractice": false,
                "modality": 2,
                "speed": 0,
                "width": 1,
                "vibrationStage": 2
            },
            "trialStartTime": 89.11996228741497,
            "loomOnsetTime": 89.11996228741497,
            "crossingD7Time": 89.11996228741497,
            "crossingD6Time": 89.37067828798186,
            "crossingD5Time": 89.49566228741496,
            "crossingD4Time": 89.60694708758503,
            "crossingD3Time": 89.73214039115647,
            "crossingD2Time": 89.85798098781179,
            "crossingD1Time": 90.10832368905895,
            "vibrationFiredTime": 89.49566228741496,
            "responseTime": 89.81573898809524,
            "responded": true,
            "reactionTimeMs": 320.0766906738281,
            "vibrationDeviceName": "None"
        },
        {
            "definition": {
                "trialId": "B1_T14",
                "blockIndex": 0,
                "trialIndex": 13,
                "isPractice": false,
                "modality": 2,
                "speed": 1,
                "width": 1,
                "vibrationStage": 3
            },
            "trialStartTime": 92.83667759353742,
            "loomOnsetTime": 92.83667759353742,
            "crossingD7Time": 92.83667759353742,
            "crossingD6Time": 93.47741529195011,
            "crossingD5Time": 93.79746949404762,
            "crossingD4Time": 94.07583728741496,
            "crossingD3Time": 94.36784888747165,
            "crossingD2Time": 94.68811239370749,
            "crossingD1Time": 95.32843119331065,
            "vibrationFiredTime": 94.07583728741496,
            "responseTime": 94.40977159155328,
            "responded": true,
            "reactionTimeMs": 333.9342956542969,
            "vibrationDeviceName": "None"
        },
        {
            "definition": {
                "trialId": "B1_T15",
                "blockIndex": 0,
                "trialIndex": 14,
                "isPractice": false,
                "modality": 2,
                "speed": 1,
                "width": 1,
                "vibrationStage": 6
            },
            "trialStartTime": 96.55431398809523,
            "loomOnsetTime": 96.55431398809523,
            "crossingD7Time": 96.55431398809523,
            "crossingD6Time": 97.19421138747166,
            "crossingD5Time": 97.51438059098639,
            "crossingD4Time": 97.79288908730159,
            "crossingD3Time": 98.08521928854874,
            "crossingD2Time": 98.40510038973923,
            "crossingD1Time": 99.0457147888322,
            "vibrationFiredTime": 99.0457147888322,
            "responseTime": 99.32416779336734,
            "responded": true,
            "reactionTimeMs": 278.4530029296875,
            "vibrationDeviceName": "None"
        },
        {
            "definition": {
                "trialId": "B1_T16",
                "blockIndex": 0,
                "trialIndex": 15,
                "isPractice": false,
                "modality": 2,
                "speed": 1,
                "width": 1,
                "vibrationStage": 1
            },
            "trialStartTime": 100.53553509070295,
            "loomOnsetTime": 100.53553509070295,
            "crossingD7Time": 100.53553509070295,
            "crossingD6Time": 101.17553159013605,
            "crossingD5Time": 101.49576189058956,
            "crossingD4Time": 101.77418679138322,
            "crossingD3Time": 102.06665469104309,
            "crossingD2Time": 102.38671529195011,
            "crossingD1Time": 103.02747439058956,
            "vibrationFiredTime": 101.17553159013605,
            "responseTime": 101.50999229024943,
            "responded": true,
            "reactionTimeMs": 334.460693359375,
            "vibrationDeviceName": "None"
        },
        {
            "definition": {
                "trialId": "B1_T17",
                "blockIndex": 0,
                "trialIndex": 16,
                "isPractice": false,
                "modality": 2,
                "speed": 1,
                "width": 1,
                "vibrationStage": 5
            },
            "trialStartTime": 104.25222489370748,
            "loomOnsetTime": 104.25222489370748,
            "crossingD7Time": 104.25222489370748,
            "crossingD6Time": 104.89267658730158,
            "crossingD5Time": 105.21298618905895,
            "crossingD4Time": 105.57694968820862,
            "crossingD3Time": 105.77972609126984,
            "crossingD2Time": 106.10185518707483,
            "crossingD1Time": 106.74264009353742,
            "vibrationFiredTime": 106.10185518707483,
            "responseTime": 106.39466619189342,
            "responded": true,
            "reactionTimeMs": 292.8110046386719,
            "vibrationDeviceName": "None"
        },
        {
            "definition": {
                "trialId": "B1_T18",
                "blockIndex": 0,
                "trialIndex": 17,
                "isPractice": false,
                "modality": 1,
                "speed": 1,
                "width": 1,
                "vibrationStage": 3
            },
            "trialStartTime": 107.96907808956915,
            "loomOnsetTime": NaN,
            "crossingD7Time": NaN,
            "crossingD6Time": NaN,
            "crossingD5Time": NaN,
            "crossingD4Time": NaN,
            "crossingD3Time": NaN,
            "crossingD2Time": NaN,
            "crossingD1Time": NaN,
            "vibrationFiredTime": 109.23398438917234,
            "responseTime": 109.49771089143991,
            "responded": true,
            "reactionTimeMs": 263.72650146484377,
            "vibrationDeviceName": "None"
        },
        {
            "definition": {
                "trialId": "B1_T19",
                "blockIndex": 0,
                "trialIndex": 18,
                "isPractice": false,
                "modality": 1,
                "speed": 1,
                "width": 1,
                "vibrationStage": 6
            },
            "trialStartTime": 111.69960889314059,
            "loomOnsetTime": NaN,
            "crossingD7Time": NaN,
            "crossingD6Time": NaN,
            "crossingD5Time": NaN,
            "crossingD4Time": NaN,
            "crossingD3Time": NaN,
            "crossingD2Time": NaN,
            "crossingD1Time": NaN,
            "vibrationFiredTime": 114.20665768849206,
            "responseTime": 114.45743599064626,
            "responded": true,
            "reactionTimeMs": 250.77830505371095,
            "vibrationDeviceName": "None"
        },
        {
            "definition": {
                "trialId": "B1_T20",
                "blockIndex": 0,
                "trialIndex": 19,
                "isPractice": false,
                "modality": 2,
                "speed": 0,
                "width": 1,
                "vibrationStage": 4
            },
            "trialStartTime": 115.66870749007936,
            "loomOnsetTime": 115.66870749007936,
            "crossingD7Time": 115.66870749007936,
            "crossingD6Time": 115.91935839002267,
            "crossingD5Time": 116.04472959183673,
            "crossingD4Time": 116.15596318735827,
            "crossingD3Time": 116.28155919075964,
            "crossingD2Time": 116.40651349206348,
            "crossingD1Time": 116.65735799319728,
            "vibrationFiredTime": 116.28155919075964,
            "responseTime": 116.6295847930839,
            "responded": true,
            "reactionTimeMs": 348.0256042480469,
            "vibrationDeviceName": "None"
        },
        {
            "definition": {
                "trialId": "B1_T21",
                "blockIndex": 0,
                "trialIndex": 20,
                "isPractice": false,
                "modality": 2,
                "speed": 0,
                "width": 1,
                "vibrationStage": 0
            },
            "trialStartTime": 119.38608489229024,
            "loomOnsetTime": 119.38608489229024,
            "crossingD7Time": 119.38608489229024,
            "crossingD6Time": 119.63673379393424,
            "crossingD5Time": 119.76200699404761,
            "crossingD4Time": 119.87317129393424,
            "crossingD3Time": 119.99856359126984,
            "crossingD2Time": 120.12418988803855,
            "crossingD1Time": 120.37429798752834,
            "vibrationFiredTime": 119.38608489229024,
            "responseTime": 120.27738839285714,
            "responded": true,
            "reactionTimeMs": 891.3035278320313,
            "vibrationDeviceName": "None"
        },
        {
            "definition": {
                "trialId": "B1_T22",
                "blockIndex": 0,
                "trialIndex": 21,
                "isPractice": false,
                "modality": 1,
                "speed": 0,
                "width": 1,
                "vibrationStage": 0
            },
            "trialStartTime": 123.10354739229024,
            "loomOnsetTime": NaN,
            "crossingD7Time": NaN,
            "crossingD6Time": NaN,
            "crossingD5Time": NaN,
            "crossingD4Time": NaN,
            "crossingD3Time": NaN,
            "crossingD2Time": NaN,
            "crossingD1Time": NaN,
            "vibrationFiredTime": 123.10354739229024,
            "responseTime": 123.74406709183673,
            "responded": true,
            "reactionTimeMs": 640.5197143554688,
            "vibrationDeviceName": "None"
        },
        {
            "definition": {
                "trialId": "B1_T23",
                "blockIndex": 0,
                "trialIndex": 22,
                "isPractice": false,
                "modality": 2,
                "speed": 0,
                "width": 1,
                "vibrationStage": 0
            },
            "trialStartTime": 126.82123739370748,
            "loomOnsetTime": 126.82123739370748,
            "crossingD7Time": 126.82123739370748,
            "crossingD6Time": 127.07219549319727,
            "crossingD5Time": 127.1977222930839,
            "crossingD4Time": 127.3087599914966,
            "crossingD3Time": 127.43396159297052,
            "crossingD2Time": 127.5595178925737,
            "crossingD1Time": 127.80968098781179,
            "vibrationFiredTime": 126.82123739370748,
            "responseTime": 127.28086159297051,
            "responded": true,
            "reactionTimeMs": 459.62420654296877,
            "vibrationDeviceName": "None"
        },
        {
            "definition": {
                "trialId": "B1_T24",
                "blockIndex": 0,
                "trialIndex": 23,
                "isPractice": false,
                "modality": 1,
                "speed": 1,
                "width": 1,
                "vibrationStage": 3
            },
            "trialStartTime": 130.5384544926304,
            "loomOnsetTime": NaN,
            "crossingD7Time": NaN,
            "crossingD6Time": NaN,
            "crossingD5Time": NaN,
            "crossingD4Time": NaN,
            "crossingD3Time": NaN,
            "crossingD2Time": NaN,
            "crossingD1Time": NaN,
            "vibrationFiredTime": 131.79144449404763,
            "responseTime": 132.1258784934807,
            "responded": true,
            "reactionTimeMs": 334.4339904785156,
            "vibrationDeviceName": "None"
        },
        {
            "definition": {
                "trialId": "B1_T25",
                "blockIndex": 0,
                "trialIndex": 24,
                "isPractice": false,
                "modality": 1,
                "speed": 1,
                "width": 1,
                "vibrationStage": 6
            },
            "trialStartTime": 134.25549479166666,
            "loomOnsetTime": NaN,
            "crossingD7Time": NaN,
            "crossingD6Time": NaN,
            "crossingD5Time": NaN,
            "crossingD4Time": NaN,
            "crossingD3Time": NaN,
            "crossingD2Time": NaN,
            "crossingD1Time": NaN,
            "vibrationFiredTime": 136.76111038832199,
            "responseTime": 137.05328358843537,
            "responded": true,
            "reactionTimeMs": 292.1731872558594,
            "vibrationDeviceName": "None"
        },
        {
            "definition": {
                "trialId": "B1_T26",
                "blockIndex": 0,
                "trialIndex": 25,
                "isPractice": false,
                "modality": 0,
                "speed": 1,
                "width": 1,
                "vibrationStage": -1
            },
            "trialStartTime": 138.26449539399094,
            "loomOnsetTime": 138.26449539399094,
            "crossingD7Time": 138.26449539399094,
            "crossingD6Time": 138.90446558956917,
            "crossingD5Time": 139.2248634920635,
            "crossingD4Time": 139.50319258786849,
            "crossingD3Time": 139.79567219387756,
            "crossingD2Time": 140.11609268707483,
            "crossingD1Time": 140.7564349914966,
            "vibrationFiredTime": NaN,
            "responseTime": NaN,
            "responded": false,
            "reactionTimeMs": NaN,
            "vibrationDeviceName": "None"
        },
        {
            "definition": {
                "trialId": "B1_T27",
                "blockIndex": 0,
                "trialIndex": 26,
                "isPractice": false,
                "modality": 1,
                "speed": 1,
                "width": 1,
                "vibrationStage": 5
            },
            "trialStartTime": 141.98170928996599,
            "loomOnsetTime": NaN,
            "crossingD7Time": NaN,
            "crossingD6Time": NaN,
            "crossingD5Time": NaN,
            "crossingD4Time": NaN,
            "crossingD3Time": NaN,
            "crossingD2Time": NaN,
            "crossingD1Time": NaN,
            "vibrationFiredTime": 143.8470224914966,
            "responseTime": 144.13918548752836,
            "responded": true,
            "reactionTimeMs": 292.1629943847656,
            "vibrationDeviceName": "None"
        },
        {
            "definition": {
                "trialId": "B1_T28",
                "blockIndex": 0,
                "trialIndex": 27,
                "isPractice": false,
                "modality": 1,
                "speed": 0,
                "width": 1,
                "vibrationStage": 4
            },
            "trialStartTime": 145.71246709183675,
            "loomOnsetTime": NaN,
            "crossingD7Time": NaN,
            "crossingD6Time": NaN,
            "crossingD5Time": NaN,
            "crossingD4Time": NaN,
            "crossingD3Time": NaN,
            "crossingD2Time": NaN,
            "crossingD1Time": NaN,
            "vibrationFiredTime": 146.3392599914966,
            "responseTime": 146.70076648951247,
            "responded": true,
            "reactionTimeMs": 361.5065002441406,
            "vibrationDeviceName": "None"
        },
        {
            "definition": {
                "trialId": "B1_T29",
                "blockIndex": 0,
                "trialIndex": 28,
                "isPractice": false,
                "modality": 2,
                "speed": 0,
                "width": 1,
                "vibrationStage": 4
            },
            "trialStartTime": 149.42970768849205,
            "loomOnsetTime": 149.42970768849205,
            "crossingD7Time": 149.42970768849205,
            "crossingD6Time": 149.68000909155328,
            "crossingD5Time": 149.80543798894559,
            "crossingD4Time": 149.91663908730158,
            "crossingD3Time": 150.04194299178006,
            "crossingD2Time": 150.1674847930839,
            "crossingD1Time": 150.41813199404764,
            "vibrationFiredTime": 150.04194299178006,
            "responseTime": 150.34867278911566,
            "responded": true,
            "reactionTimeMs": 306.72979736328127,
            "vibrationDeviceName": "None"
        },
        {
            "definition": {
                "trialId": "B1_T30",
                "blockIndex": 0,
                "trialIndex": 29,
                "isPractice": false,
                "modality": 1,
                "speed": 0,
                "width": 1,
                "vibrationStage": 3
            },
            "trialStartTime": 153.14676729024942,
            "loomOnsetTime": NaN,
            "crossingD7Time": NaN,
            "crossingD6Time": NaN,
            "crossingD5Time": NaN,
            "crossingD4Time": NaN,
            "crossingD3Time": NaN,
            "crossingD2Time": NaN,
            "crossingD1Time": NaN,
            "vibrationFiredTime": 153.64781838860544,
            "responseTime": 153.91239449404763,
            "responded": true,
            "reactionTimeMs": 264.57611083984377,
            "vibrationDeviceName": "None"
        },
        {
            "definition": {
                "trialId": "B1_T31",
                "blockIndex": 0,
                "trialIndex": 30,
                "isPractice": false,
                "modality": 2,
                "speed": 1,
                "width": 1,
                "vibrationStage": 3
            },
            "trialStartTime": 156.86387169075963,
            "loomOnsetTime": 156.86387169075963,
            "crossingD7Time": 156.86387169075963,
            "crossingD6Time": 157.5044430909864,
            "crossingD5Time": 157.8246654903628,
            "crossingD4Time": 158.10307178996599,
            "crossingD3Time": 158.3954180909864,
            "crossingD2Time": 158.71540659013605,
            "crossingD1Time": 159.3557865929705,
            "vibrationFiredTime": 158.10307178996599,
            "responseTime": 158.4234684878118,
            "responded": true,
            "reactionTimeMs": 320.3966979980469,
            "vibrationDeviceName": "None"
        },
        {
            "definition": {
                "trialId": "B1_T32",
                "blockIndex": 0,
                "trialIndex": 31,
                "isPractice": false,
                "modality": 1,
                "speed": 1,
                "width": 1,
                "vibrationStage": 2
            },
            "trialStartTime": 160.58133779053288,
            "loomOnsetTime": NaN,
            "crossingD7Time": NaN,
            "crossingD6Time": NaN,
            "crossingD5Time": NaN,
            "crossingD4Time": NaN,
            "crossingD3Time": NaN,
            "crossingD2Time": NaN,
            "crossingD1Time": NaN,
            "vibrationFiredTime": 161.5553821924603,
            "responseTime": 162.00114639314058,
            "responded": true,
            "reactionTimeMs": 445.7641906738281,
            "vibrationDeviceName": "None"
        },
        {
            "definition": {
                "trialId": "B1_T33",
                "blockIndex": 0,
                "trialIndex": 32,
                "isPractice": false,
                "modality": 2,
                "speed": 1,
                "width": 1,
                "vibrationStage": 6
            },
            "trialStartTime": 164.31270269274376,
            "loomOnsetTime": 164.31270269274376,
            "crossingD7Time": 164.31270269274376,
            "crossingD6Time": 164.9532443877551,
            "crossingD5Time": 165.27351689342403,
            "crossingD4Time": 165.55236159297054,
            "crossingD3Time": 165.8446946924603,
            "crossingD2Time": 166.15122489370749,
            "crossingD1Time": 166.80544909297053,
            "vibrationFiredTime": 166.80544909297053,
            "responseTime": 167.1259851899093,
            "responded": true,
            "reactionTimeMs": 320.5361022949219,
            "vibrationDeviceName": "None"
        },
        {
            "definition": {
                "trialId": "B1_T34",
                "blockIndex": 0,
                "trialIndex": 33,
                "isPractice": false,
                "modality": 1,
                "speed": 0,
                "width": 1,
                "vibrationStage": 4
            },
            "trialStartTime": 168.3370099914966,
            "loomOnsetTime": NaN,
            "crossingD7Time": NaN,
            "crossingD6Time": NaN,
            "crossingD5Time": NaN,
            "crossingD4Time": NaN,
            "crossingD3Time": NaN,
            "crossingD2Time": NaN,
            "crossingD1Time": NaN,
            "vibrationFiredTime": 168.96318229166668,
            "responseTime": 169.25592689200679,
            "responded": true,
            "reactionTimeMs": 292.7445983886719,
            "vibrationDeviceName": "None"
        },
        {
            "definition": {
                "trialId": "B1_T35",
                "blockIndex": 0,
                "trialIndex": 34,
                "isPractice": false,
                "modality": 1,
                "speed": 0,
                "width": 1,
                "vibrationStage": 1
            },
            "trialStartTime": 172.053896789966,
            "loomOnsetTime": NaN,
            "crossingD7Time": NaN,
            "crossingD6Time": NaN,
            "crossingD5Time": NaN,
            "crossingD4Time": NaN,
            "crossingD3Time": NaN,
            "crossingD2Time": NaN,
            "crossingD1Time": NaN,
            "vibrationFiredTime": 172.31812149234694,
            "responseTime": 173.40438618905896,
            "responded": true,
            "reactionTimeMs": 1086.2646484375,
            "vibrationDeviceName": "None"
        },
        {
            "definition": {
                "trialId": "B1_T36",
                "blockIndex": 0,
                "trialIndex": 35,
                "isPractice": false,
                "modality": 0,
                "speed": 0,
                "width": 1,
                "vibrationStage": -1
            },
            "trialStartTime": 175.77083159013606,
            "loomOnsetTime": 175.77083159013606,
            "crossingD7Time": 175.77083159013606,
            "crossingD6Time": 176.0209860898526,
            "crossingD5Time": 176.1461790887188,
            "crossingD4Time": 176.25786648951246,
            "crossingD3Time": 176.38308209325397,
            "crossingD2Time": 176.50845099206348,
            "crossingD1Time": 176.75866648951249,
            "vibrationFiredTime": NaN,
            "responseTime": NaN,
            "responded": false,
            "reactionTimeMs": NaN,
            "vibrationDeviceName": "None"
        },
        {
            "definition": {
                "trialId": "B1_T37",
                "blockIndex": 0,
                "trialIndex": 36,
                "isPractice": false,
                "modality": 0,
                "speed": 0,
                "width": 1,
                "vibrationStage": -1
            },
            "trialStartTime": 179.48763839285713,
            "loomOnsetTime": 179.48763839285713,
            "crossingD7Time": 179.48763839285713,
            "crossingD6Time": 179.73824279336734,
            "crossingD5Time": 179.86330799319729,
            "crossingD4Time": 179.97496288973924,
            "crossingD3Time": 180.10010919075965,
            "crossingD2Time": 180.22547828798185,
            "crossingD1Time": 180.4760207908163,
            "vibrationFiredTime": NaN,
            "responseTime": NaN,
            "responded": false,
            "reactionTimeMs": NaN,
            "vibrationDeviceName": "None"
        },
        {
            "definition": {
                "trialId": "B1_T38",
                "blockIndex": 0,
                "trialIndex": 37,
                "isPractice": false,
                "modality": 1,
                "speed": 0,
                "width": 1,
                "vibrationStage": 3
            },
            "trialStartTime": 183.20336779336734,
            "loomOnsetTime": NaN,
            "crossingD7Time": NaN,
            "crossingD6Time": NaN,
            "crossingD5Time": NaN,
            "crossingD4Time": NaN,
            "crossingD3Time": NaN,
            "crossingD2Time": NaN,
            "crossingD1Time": NaN,
            "vibrationFiredTime": 183.7051899872449,
            "responseTime": 184.150831292517,
            "responded": true,
            "reactionTimeMs": 445.64129638671877,
            "vibrationDeviceName": "None"
        },
        {
            "definition": {
                "trialId": "B1_T39",
                "blockIndex": 0,
                "trialIndex": 38,
                "isPractice": false,
                "modality": 1,
                "speed": 1,
                "width": 1,
                "vibrationStage": 3
            },
            "trialStartTime": 186.9221272888322,
            "loomOnsetTime": NaN,
            "crossingD7Time": NaN,
            "crossingD6Time": NaN,
            "crossingD5Time": NaN,
            "crossingD4Time": NaN,
            "crossingD3Time": NaN,
            "crossingD2Time": NaN,
            "crossingD1Time": NaN,
            "vibrationFiredTime": 188.1747580924036,
            "responseTime": 188.4810022888322,
            "responded": true,
            "reactionTimeMs": 306.24420166015627,
            "vibrationDeviceName": "None"
        },
        {
            "definition": {
                "trialId": "B1_T40",
                "blockIndex": 0,
                "trialIndex": 39,
                "isPractice": false,
                "modality": 2,
                "speed": 1,
                "width": 1,
                "vibrationStage": 2
            },
            "trialStartTime": 190.63878499149659,
            "loomOnsetTime": 190.63878499149659,
            "crossingD7Time": 190.63878499149659,
            "crossingD6Time": 191.2791404903628,
            "crossingD5Time": 191.59969129109977,
            "crossingD4Time": 191.87699248866213,
            "crossingD3Time": 192.16932789115647,
            "crossingD2Time": 192.49003139172334,
            "crossingD1Time": 193.13025549178006,
            "vibrationFiredTime": 191.59969129109977,
            "responseTime": 191.91910999149659,
            "responded": true,
            "reactionTimeMs": 319.418701171875,
            "vibrationDeviceName": "None"
        },
        {
            "definition": {
                "trialId": "B1_T41",
                "blockIndex": 0,
                "trialIndex": 40,
                "isPractice": false,
                "modality": 2,
                "speed": 1,
                "width": 1,
                "vibrationStage": 1
            },
            "trialStartTime": 194.3555053925737,
            "loomOnsetTime": 194.3555053925737,
            "crossingD7Time": 194.3555053925737,
            "crossingD6Time": 194.99608829365079,
            "crossingD5Time": 195.31648229166667,
            "crossingD4Time": 195.5948667871315,
            "crossingD3Time": 195.8871630881519,
            "crossingD2Time": 196.19386288973923,
            "crossingD1Time": 196.84736738945578,
            "vibrationFiredTime": 194.99608829365079,
            "responseTime": 195.3026865929705,
            "responded": true,
            "reactionTimeMs": 306.5982971191406,
            "vibrationDeviceName": "None"
        },
        {
            "definition": {
                "trialId": "B1_T42",
                "blockIndex": 0,
                "trialIndex": 41,
                "isPractice": false,
                "modality": 0,
                "speed": 1,
                "width": 1,
                "vibrationStage": -1
            },
            "trialStartTime": 198.07299678996598,
            "loomOnsetTime": 198.07299678996598,
            "crossingD7Time": 198.07299678996598,
            "crossingD6Time": 198.71346079223356,
            "crossingD5Time": 199.03400459183673,
            "crossingD4Time": 199.3125994897959,
            "crossingD3Time": 199.60497098922904,
            "crossingD2Time": 199.91146408730158,
            "crossingD1Time": 200.56581949404763,
            "vibrationFiredTime": NaN,
            "responseTime": NaN,
            "responded": false,
            "reactionTimeMs": NaN,
            "vibrationDeviceName": "None"
        },
        {
            "definition": {
                "trialId": "B1_T43",
                "blockIndex": 0,
                "trialIndex": 42,
                "isPractice": false,
                "modality": 2,
                "speed": 1,
                "width": 1,
                "vibrationStage": 0
            },
            "trialStartTime": 201.79136118905897,
            "loomOnsetTime": 201.79136118905897,
            "crossingD7Time": 201.79136118905897,
            "crossingD6Time": 202.43150889314058,
            "crossingD5Time": 202.75182149234693,
            "crossingD4Time": 203.03037898951247,
            "crossingD3Time": 203.322910388322,
            "crossingD2Time": 203.64338029336734,
            "crossingD1Time": 204.28366269132654,
            "vibrationFiredTime": 201.79136118905897,
            "responseTime": 202.09712859268707,
            "responded": true,
            "reactionTimeMs": 305.76739501953127,
            "vibrationDeviceName": "None"
        },
        {
            "definition": {
                "trialId": "B1_T44",
                "blockIndex": 0,
                "trialIndex": 43,
                "isPractice": false,
                "modality": 1,
                "speed": 1,
                "width": 1,
                "vibrationStage": 1
            },
            "trialStartTime": 205.50902908871883,
            "loomOnsetTime": NaN,
            "crossingD7Time": NaN,
            "crossingD6Time": NaN,
            "crossingD5Time": NaN,
            "crossingD4Time": NaN,
            "crossingD3Time": NaN,
            "crossingD2Time": NaN,
            "crossingD1Time": NaN,
            "vibrationFiredTime": 206.16284788832199,
            "responseTime": 206.42748268849207,
            "responded": true,
            "reactionTimeMs": 264.6347961425781,
            "vibrationDeviceName": "None"
        },
        {
            "definition": {
                "trialId": "B1_T45",
                "blockIndex": 0,
                "trialIndex": 44,
                "isPractice": false,
                "modality": 2,
                "speed": 0,
                "width": 1,
                "vibrationStage": 4
            },
            "trialStartTime": 209.23898098781178,
            "loomOnsetTime": 209.23898098781178,
            "crossingD7Time": 209.23898098781178,
            "crossingD6Time": 209.49006038832199,
            "crossingD5Time": 209.61510729166666,
            "crossingD4Time": 209.7265036918934,
            "crossingD3Time": 209.85201169217687,
            "crossingD2Time": 209.97759379251699,
            "crossingD1Time": 210.2277529903628,
            "vibrationFiredTime": 209.85201169217687,
            "responseTime": 210.14417789115647,
            "responded": true,
            "reactionTimeMs": 292.16619873046877,
            "vibrationDeviceName": "None"
        },
        {
            "definition": {
                "trialId": "B1_T46",
                "blockIndex": 0,
                "trialIndex": 45,
                "isPractice": false,
                "modality": 1,
                "speed": 0,
                "width": 1,
                "vibrationStage": 5
            },
            "trialStartTime": 212.95617059240363,
            "loomOnsetTime": NaN,
            "crossingD7Time": NaN,
            "crossingD6Time": NaN,
            "crossingD5Time": NaN,
            "crossingD4Time": NaN,
            "crossingD3Time": NaN,
            "crossingD2Time": NaN,
            "crossingD1Time": NaN,
            "vibrationFiredTime": 213.70782268990929,
            "responseTime": 213.95865408871883,
            "responded": true,
            "reactionTimeMs": 250.83140563964845,
            "vibrationDeviceName": "None"
        },
        {
            "definition": {
                "trialId": "B1_T47",
                "blockIndex": 0,
                "trialIndex": 46,
                "isPractice": false,
                "modality": 1,
                "speed": 0,
                "width": 1,
                "vibrationStage": 0
            },
            "trialStartTime": 216.67336809098638,
            "loomOnsetTime": NaN,
            "crossingD7Time": NaN,
            "crossingD6Time": NaN,
            "crossingD5Time": NaN,
            "crossingD4Time": NaN,
            "crossingD3Time": NaN,
            "crossingD2Time": NaN,
            "crossingD1Time": NaN,
            "vibrationFiredTime": 216.67336809098638,
            "responseTime": 217.27188649376417,
            "responded": true,
            "reactionTimeMs": 598.5184326171875,
            "vibrationDeviceName": "None"
        },
        {
            "definition": {
                "trialId": "B1_T48",
                "blockIndex": 0,
                "trialIndex": 47,
                "isPractice": false,
                "modality": 2,
                "speed": 0,
                "width": 1,
                "vibrationStage": 5
            },
            "trialStartTime": 220.39013998724489,
            "loomOnsetTime": 220.39013998724489,
            "crossingD7Time": 220.39013998724489,
            "crossingD6Time": 220.64095068735828,
            "crossingD5Time": 220.7663193877551,
            "crossingD4Time": 220.87753669217688,
            "crossingD3Time": 221.00337259070296,
            "crossingD2Time": 221.12824659155329,
            "crossingD1Time": 221.50607959183675,
            "vibrationFiredTime": 221.12824659155329,
            "responseTime": 221.50607959183675,
            "responded": true,
            "reactionTimeMs": 377.8330078125,
            "vibrationDeviceName": "None"
        },
        {
            "definition": {
                "trialId": "B1_T49",
                "blockIndex": 0,
                "trialIndex": 48,
                "isPractice": false,
                "modality": 2,
                "speed": 1,
                "width": 1,
                "vibrationStage": 3
            },
            "trialStartTime": 224.10714589002269,
            "loomOnsetTime": 224.10714589002269,
            "crossingD7Time": 224.10714589002269,
            "crossingD6Time": 224.7478652919501,
            "crossingD5Time": 225.0678149872449,
            "crossingD4Time": 225.34632889030613,
            "crossingD3Time": 225.63896079223356,
            "crossingD2Time": 225.95874459325396,
            "crossingD1Time": 226.599256292517,
            "vibrationFiredTime": 225.34632889030613,
            "responseTime": 225.66637898951246,
            "responded": true,
            "reactionTimeMs": 320.05010986328127,
            "vibrationDeviceName": "None"
        },
        {
            "definition": {
                "trialId": "B1_T50",
                "blockIndex": 0,
                "trialIndex": 49,
                "isPractice": false,
                "modality": 1,
                "speed": 1,
                "width": 1,
                "vibrationStage": 5
            },
            "trialStartTime": 227.82432538973922,
            "loomOnsetTime": NaN,
            "crossingD7Time": NaN,
            "crossingD6Time": NaN,
            "crossingD5Time": NaN,
            "crossingD4Time": NaN,
            "crossingD3Time": NaN,
            "crossingD2Time": NaN,
            "crossingD1Time": NaN,
            "vibrationFiredTime": 229.68986318735828,
            "responseTime": 230.01046249291384,
            "responded": true,
            "reactionTimeMs": 320.59930419921877,
            "vibrationDeviceName": "None"
        },
        {
            "definition": {
                "trialId": "B1_T51",
                "blockIndex": 0,
                "trialIndex": 50,
                "isPractice": false,
                "modality": 2,
                "speed": 1,
                "width": 1,
                "vibrationStage": 4
            },
            "trialStartTime": 231.55533389314059,
            "loomOnsetTime": 231.55533389314059,
            "crossingD7Time": 231.55533389314059,
            "crossingD6Time": 232.19590549178003,
            "crossingD5Time": 232.51639719387755,
            "crossingD4Time": 232.79468878968255,
            "crossingD3Time": 233.08697849348074,
            "crossingD2Time": 233.40730328798186,
            "crossingD1Time": 234.04767039399094,
            "vibrationFiredTime": 233.08697849348074,
            "responseTime": 233.46331999007936,
            "responded": true,
            "reactionTimeMs": 376.34149169921877,
            "vibrationDeviceName": "None"
        },
        {
            "definition": {
                "trialId": "B1_T52",
                "blockIndex": 0,
                "trialIndex": 51,
                "isPractice": false,
                "modality": 2,
                "speed": 1,
                "width": 1,
                "vibrationStage": 3
            },
            "trialStartTime": 235.27349039115647,
            "loomOnsetTime": 235.27349039115647,
            "crossingD7Time": 235.27349039115647,
            "crossingD6Time": 235.91380109126983,
            "crossingD5Time": 236.2340499929138,
            "crossingD4Time": 236.51310218962585,
            "crossingD3Time": 236.80579659155328,
            "crossingD2Time": 237.1118283871882,
            "crossingD1Time": 237.76642149234693,
            "vibrationFiredTime": 236.51310218962585,
            "responseTime": 236.81940498866212,
            "responded": true,
            "reactionTimeMs": 306.30279541015627,
            "vibrationDeviceName": "None"
        },
        {
            "definition": {
                "trialId": "B1_T53",
                "blockIndex": 0,
                "trialIndex": 52,
                "isPractice": false,
                "modality": 1,
                "speed": 0,
                "width": 1,
                "vibrationStage": 4
            },
            "trialStartTime": 238.9913779903628,
            "loomOnsetTime": NaN,
            "crossingD7Time": NaN,
            "crossingD6Time": NaN,
            "crossingD5Time": NaN,
            "crossingD4Time": NaN,
            "crossingD3Time": NaN,
            "crossingD2Time": NaN,
            "crossingD1Time": NaN,
            "vibrationFiredTime": 239.617958489229,
            "responseTime": 240.06327129393424,
            "responded": true,
            "reactionTimeMs": 445.31280517578127,
            "vibrationDeviceName": "None"
        },
        {
            "definition": {
                "trialId": "B1_T54",
                "blockIndex": 0,
                "trialIndex": 53,
                "isPractice": false,
                "modality": 2,
                "speed": 0,
                "width": 1,
                "vibrationStage": 0
            },
            "trialStartTime": 242.7080696924603,
            "loomOnsetTime": 242.7080696924603,
            "crossingD7Time": 242.7080696924603,
            "crossingD6Time": 242.95847718962586,
            "crossingD5Time": 243.0838189909297,
            "crossingD4Time": 243.19517489370748,
            "crossingD3Time": 243.32052879109978,
            "crossingD2Time": 243.4458731930272,
            "crossingD1Time": 243.6966774872449,
            "vibrationFiredTime": 242.7080696924603,
            "responseTime": 243.3484702876984,
            "responded": true,
            "reactionTimeMs": 640.4005737304688,
            "vibrationDeviceName": "None"
        },
        {
            "definition": {
                "trialId": "B1_T55",
                "blockIndex": 0,
                "trialIndex": 54,
                "isPractice": false,
                "modality": 0,
                "speed": 0,
                "width": 1,
                "vibrationStage": -1
            },
            "trialStartTime": 246.42521359126983,
            "loomOnsetTime": 246.42521359126983,
            "crossingD7Time": 246.42521359126983,
            "crossingD6Time": 246.67597808956917,
            "crossingD5Time": 246.8012786918934,
            "crossingD4Time": 246.9124571924603,
            "crossingD3Time": 247.03795608701814,
            "crossingD2Time": 247.16290889314059,
            "crossingD1Time": 247.4136992913832,
            "vibrationFiredTime": NaN,
            "responseTime": NaN,
            "responded": false,
            "reactionTimeMs": NaN,
            "vibrationDeviceName": "None"
        },
        {
            "definition": {
                "trialId": "B1_T56",
                "blockIndex": 0,
                "trialIndex": 55,
                "isPractice": false,
                "modality": 1,
                "speed": 1,
                "width": 1,
                "vibrationStage": 4
            },
            "trialStartTime": 250.14256928854875,
            "loomOnsetTime": NaN,
            "crossingD7Time": NaN,
            "crossingD6Time": NaN,
            "crossingD5Time": NaN,
            "crossingD4Time": NaN,
            "crossingD3Time": NaN,
            "crossingD2Time": NaN,
            "crossingD1Time": NaN,
            "vibrationFiredTime": 251.68785938917234,
            "responseTime": 251.95264919217687,
            "responded": true,
            "reactionTimeMs": 264.789794921875,
            "vibrationDeviceName": "None"
        },
        {
            "definition": {
                "trialId": "B1_T57",
                "blockIndex": 0,
                "trialIndex": 56,
                "isPractice": false,
                "modality": 2,
                "speed": 1,
                "width": 1,
                "vibrationStage": 5
            },
            "trialStartTime": 253.87333818735827,
            "loomOnsetTime": 253.87333818735827,
            "crossingD7Time": 253.87333818735827,
            "crossingD6Time": 254.5138858914399,
            "crossingD5Time": 254.83386719104309,
            "crossingD4Time": 255.11235469104308,
            "crossingD3Time": 255.40480479024942,
            "crossingD2Time": 255.72521468962584,
            "crossingD1Time": 256.3654363874716,
            "vibrationFiredTime": 255.72521468962584,
            "responseTime": 256.0040735898526,
            "responded": true,
            "reactionTimeMs": 278.85888671875,
            "vibrationDeviceName": "None"
        },
        {
            "definition": {
                "trialId": "B1_T58",
                "blockIndex": 0,
                "trialIndex": 57,
                "isPractice": false,
                "modality": 0,
                "speed": 1,
                "width": 1,
                "vibrationStage": -1
            },
            "trialStartTime": 257.5905851899093,
            "loomOnsetTime": 257.5905851899093,
            "crossingD7Time": 257.5905851899093,
            "crossingD6Time": 258.23090379109979,
            "crossingD5Time": 258.5510053925737,
            "crossingD4Time": 258.82950359268707,
            "crossingD3Time": 259.1220042871315,
            "crossingD2Time": 259.4420102891156,
            "crossingD1Time": 260.0820761904762,
            "vibrationFiredTime": NaN,
            "responseTime": NaN,
            "responded": false,
            "reactionTimeMs": NaN,
            "vibrationDeviceName": "None"
        },
        {
            "definition": {
                "trialId": "B1_T59",
                "blockIndex": 0,
                "trialIndex": 58,
                "isPractice": false,
                "modality": 0,
                "speed": 1,
                "width": 1,
                "vibrationStage": -1
            },
            "trialStartTime": 261.30741429280047,
            "loomOnsetTime": 261.30741429280047,
            "crossingD7Time": 261.30741429280047,
            "crossingD6Time": 261.94808119331068,
            "crossingD5Time": 262.2683277919501,
            "crossingD4Time": 262.54698849206349,
            "crossingD3Time": 262.8392264880952,
            "crossingD2Time": 263.159483489229,
            "crossingD1Time": 263.79986979166667,
            "vibrationFiredTime": NaN,
            "responseTime": NaN,
            "responded": false,
            "reactionTimeMs": NaN,
            "vibrationDeviceName": "None"
        },
        {
            "definition": {
                "trialId": "B1_T60",
                "blockIndex": 0,
                "trialIndex": 59,
                "isPractice": false,
                "modality": 2,
                "speed": 0,
                "width": 1,
                "vibrationStage": 4
            },
            "trialStartTime": 265.02512478741496,
            "loomOnsetTime": 265.02512478741496,
            "crossingD7Time": 265.02512478741496,
            "crossingD6Time": 265.27546179138326,
            "crossingD5Time": 265.4006917871315,
            "crossingD4Time": 265.5123998937075,
            "crossingD3Time": 265.6374340915533,
            "crossingD2Time": 265.76251398809526,
            "crossingD1Time": 266.0133136904762,
            "vibrationFiredTime": 265.6374340915533,
            "responseTime": 265.92988448837868,
            "responded": true,
            "reactionTimeMs": 292.4504089355469,
            "vibrationDeviceName": "None"
        },
        {
            "definition": {
                "trialId": "B1_T61",
                "blockIndex": 0,
                "trialIndex": 60,
                "isPractice": false,
                "modality": 1,
                "speed": 0,
                "width": 1,
                "vibrationStage": 6
            },
            "trialStartTime": 268.7414803925737,
            "loomOnsetTime": NaN,
            "crossingD7Time": NaN,
            "crossingD6Time": NaN,
            "crossingD5Time": NaN,
            "crossingD4Time": NaN,
            "crossingD3Time": NaN,
            "crossingD2Time": NaN,
            "crossingD1Time": NaN,
            "vibrationFiredTime": 269.7444231930272,
            "responseTime": 270.0504183886054,
            "responded": true,
            "reactionTimeMs": 305.9952087402344,
            "vibrationDeviceName": "None"
        },
        {
            "definition": {
                "trialId": "B1_T62",
                "blockIndex": 0,
                "trialIndex": 61,
                "isPractice": false,
                "modality": 2,
                "speed": 0,
                "width": 1,
                "vibrationStage": 3
            },
            "trialStartTime": 272.45831928854877,
            "loomOnsetTime": 272.45831928854877,
            "crossingD7Time": 272.45831928854877,
            "crossingD6Time": 272.7088610898526,
            "crossingD5Time": 272.8344413903061,
            "crossingD4Time": 272.94582988945577,
            "crossingD3Time": 273.07104968820866,
            "crossingD2Time": 273.1964739937642,
            "crossingD1Time": 273.4471314909297,
            "vibrationFiredTime": 272.94582988945577,
            "responseTime": 273.2935279903628,
            "responded": true,
            "reactionTimeMs": 347.6980895996094,
            "vibrationDeviceName": "None"
        },
        {
            "definition": {
                "trialId": "B1_T63",
                "blockIndex": 0,
                "trialIndex": 62,
                "isPractice": false,
                "modality": 2,
                "speed": 0,
                "width": 1,
                "vibrationStage": 2
            },
            "trialStartTime": 276.17678309240366,
            "loomOnsetTime": 276.17678309240366,
            "crossingD7Time": 276.17678309240366,
            "crossingD6Time": 276.4269943877551,
            "crossingD5Time": 276.55225449263039,
            "crossingD4Time": 276.6639753897392,
            "crossingD3Time": 276.7895462939342,
            "crossingD2Time": 276.9144109906463,
            "crossingD1Time": 277.1651375921202,
            "vibrationFiredTime": 276.55225449263039,
            "responseTime": 276.84505549178007,
            "responded": true,
            "reactionTimeMs": 292.8009948730469,
            "vibrationDeviceName": "None"
        },
        {
            "definition": {
                "trialId": "B1_T64",
                "blockIndex": 0,
                "trialIndex": 63,
                "isPractice": false,
                "modality": 1,
                "speed": 1,
                "width": 1,
                "vibrationStage": 4
            },
            "trialStartTime": 279.89354768990929,
            "loomOnsetTime": NaN,
            "crossingD7Time": NaN,
            "crossingD6Time": NaN,
            "crossingD5Time": NaN,
            "crossingD4Time": NaN,
            "crossingD3Time": NaN,
            "crossingD2Time": NaN,
            "crossingD1Time": NaN,
            "vibrationFiredTime": 281.4390626913265,
            "responseTime": 281.6898365929705,
            "responded": true,
            "reactionTimeMs": 250.77389526367188,
            "vibrationDeviceName": "None"
        },
        {
            "definition": {
                "trialId": "B1_T65",
                "blockIndex": 0,
                "trialIndex": 64,
                "isPractice": false,
                "modality": 1,
                "speed": 1,
                "width": 1,
                "vibrationStage": 2
            },
            "trialStartTime": 283.6252115929705,
            "loomOnsetTime": NaN,
            "crossingD7Time": NaN,
            "crossingD6Time": NaN,
            "crossingD5Time": NaN,
            "crossingD4Time": NaN,
            "crossingD3Time": NaN,
            "crossingD2Time": NaN,
            "crossingD1Time": NaN,
            "vibrationFiredTime": 284.5994711876417,
            "responseTime": 284.92028039257368,
            "responded": true,
            "reactionTimeMs": 320.8092041015625,
            "vibrationDeviceName": "None"
        },
        {
            "definition": {
                "trialId": "B1_T66",
                "blockIndex": 0,
                "trialIndex": 65,
                "isPractice": false,
                "modality": 1,
                "speed": 1,
                "width": 1,
                "vibrationStage": 4
            },
            "trialStartTime": 287.35592898951247,
            "loomOnsetTime": NaN,
            "crossingD7Time": NaN,
            "crossingD6Time": NaN,
            "crossingD5Time": NaN,
            "crossingD4Time": NaN,
            "crossingD3Time": NaN,
            "crossingD2Time": NaN,
            "crossingD1Time": NaN,
            "vibrationFiredTime": 288.9015503897392,
            "responseTime": 289.18002458900227,
            "responded": true,
            "reactionTimeMs": 278.4742126464844,
            "vibrationDeviceName": "None"
        },
        {
            "definition": {
                "trialId": "B1_T67",
                "blockIndex": 0,
                "trialIndex": 66,
                "isPractice": false,
                "modality": 1,
                "speed": 0,
                "width": 1,
                "vibrationStage": 4
            },
            "trialStartTime": 291.08740349348076,
            "loomOnsetTime": NaN,
            "crossingD7Time": NaN,
            "crossingD6Time": NaN,
            "crossingD5Time": NaN,
            "crossingD4Time": NaN,
            "crossingD3Time": NaN,
            "crossingD2Time": NaN,
            "crossingD1Time": NaN,
            "vibrationFiredTime": 291.7137662910998,
            "responseTime": 292.0200819940476,
            "responded": true,
            "reactionTimeMs": 306.3157043457031,
            "vibrationDeviceName": "None"
        },
        {
            "definition": {
                "trialId": "B1_T68",
                "blockIndex": 0,
                "trialIndex": 67,
                "isPractice": false,
                "modality": 1,
                "speed": 0,
                "width": 1,
                "vibrationStage": 2
            },
            "trialStartTime": 294.8042516935941,
            "loomOnsetTime": NaN,
            "crossingD7Time": NaN,
            "crossingD6Time": NaN,
            "crossingD5Time": NaN,
            "crossingD4Time": NaN,
            "crossingD3Time": NaN,
            "crossingD2Time": NaN,
            "crossingD1Time": NaN,
            "vibrationFiredTime": 295.19437738803858,
            "responseTime": 295.50045459183675,
            "responded": true,
            "reactionTimeMs": 306.07720947265627,
            "vibrationDeviceName": "None"
        },
        {
            "definition": {
                "trialId": "B1_T69",
                "blockIndex": 0,
                "trialIndex": 68,
                "isPractice": false,
                "modality": 0,
                "speed": 0,
                "width": 1,
                "vibrationStage": -1
            },
            "trialStartTime": 298.5210619897959,
            "loomOnsetTime": 298.5210619897959,
            "crossingD7Time": 298.5210619897959,
            "crossingD6Time": 298.771993792517,
            "crossingD5Time": 298.89695048894557,
            "crossingD4Time": 299.0087483914399,
            "crossingD3Time": 299.13373579223357,
            "crossingD2Time": 299.25909659155328,
            "crossingD1Time": 299.5091303925737,
            "vibrationFiredTime": NaN,
            "responseTime": NaN,
            "responded": false,
            "reactionTimeMs": NaN,
            "vibrationDeviceName": "None"
        },
        {
            "definition": {
                "trialId": "B1_T70",
                "blockIndex": 0,
                "trialIndex": 69,
                "isPractice": false,
                "modality": 2,
                "speed": 0,
                "width": 1,
                "vibrationStage": 2
            },
            "trialStartTime": 302.237932390873,
            "loomOnsetTime": 302.237932390873,
            "crossingD7Time": 302.237932390873,
            "crossingD6Time": 302.4885828939909,
            "crossingD5Time": 302.6140941893424,
            "crossingD4Time": 302.72527089002269,
            "crossingD3Time": 302.8505125921202,
            "crossingD2Time": 302.9758270904195,
            "crossingD1Time": 303.226457390873,
            "vibrationFiredTime": 302.6140941893424,
            "responseTime": 302.91997738803857,
            "responded": true,
            "reactionTimeMs": 305.8832092285156,
            "vibrationDeviceName": "None"
        },
        {
            "definition": {
                "trialId": "B1_T71",
                "blockIndex": 0,
                "trialIndex": 70,
                "isPractice": false,
                "modality": 2,
                "speed": 0,
                "width": 1,
                "vibrationStage": 2
            },
            "trialStartTime": 305.95618968962585,
            "loomOnsetTime": 305.95618968962585,
            "crossingD7Time": 305.95618968962585,
            "crossingD6Time": 306.20651979166669,
            "crossingD5Time": 306.33157489370748,
            "crossingD4Time": 306.44323669217689,
            "crossingD3Time": 306.56837268990929,
            "crossingD2Time": 306.69379878826529,
            "crossingD1Time": 306.94430079365079,
            "vibrationFiredTime": 306.33157489370748,
            "responseTime": 306.6519865929705,
            "responded": true,
            "reactionTimeMs": 320.4117126464844,
            "vibrationDeviceName": "None"
        },
        {
            "definition": {
                "trialId": "B1_T72",
                "blockIndex": 0,
                "trialIndex": 71,
                "isPractice": false,
                "modality": 2,
                "speed": 0,
                "width": 1,
                "vibrationStage": 2
            },
            "trialStartTime": 309.6745455924036,
            "loomOnsetTime": 309.6745455924036,
            "crossingD7Time": 309.6745455924036,
            "crossingD6Time": 309.9245044926304,
            "crossingD5Time": 310.049972888322,
            "crossingD4Time": 310.1614610898526,
            "crossingD3Time": 310.28677738803858,
            "crossingD2Time": 310.4119995890023,
            "crossingD1Time": 310.6627026927438,
            "vibrationFiredTime": 310.049972888322,
            "responseTime": 310.3425005881519,
            "responded": true,
            "reactionTimeMs": 292.5277099609375,
            "vibrationDeviceName": "None"
        },
        {
            "definition": {
                "trialId": "B1_T73",
                "blockIndex": 0,
                "trialIndex": 72,
                "isPractice": false,
                "modality": 2,
                "speed": 1,
                "width": 1,
                "vibrationStage": 4
            },
            "trialStartTime": 313.39046369047619,
            "loomOnsetTime": 313.39046369047619,
            "crossingD7Time": 313.39046369047619,
            "crossingD6Time": 314.03111279053288,
            "crossingD5Time": 314.3513673894558,
            "crossingD4Time": 314.6298152919501,
            "crossingD3Time": 314.9218821924603,
            "crossingD2Time": 315.2425117913832,
            "crossingD1Time": 315.882546789966,
            "vibrationFiredTime": 314.9218821924603,
            "responseTime": 315.2701024872449,
            "responded": true,
            "reactionTimeMs": 348.2203063964844,
            "vibrationDeviceName": "None"
        },
        {
            "definition": {
                "trialId": "B1_T74",
                "blockIndex": 0,
                "trialIndex": 73,
                "isPractice": false,
                "modality": 2,
                "speed": 1,
                "width": 1,
                "vibrationStage": 2
            },
            "trialStartTime": 317.10820089285718,
            "loomOnsetTime": 317.10820089285718,
            "crossingD7Time": 317.10820089285718,
            "crossingD6Time": 317.74826279053289,
            "crossingD5Time": 318.06835749007936,
            "crossingD4Time": 318.3466017928004,
            "crossingD3Time": 318.6390848922902,
            "crossingD2Time": 318.959035388322,
            "crossingD1Time": 319.5990934878118,
            "vibrationFiredTime": 318.06835749007936,
            "responseTime": 318.4301604875283,
            "responded": true,
            "reactionTimeMs": 361.8030090332031,
            "vibrationDeviceName": "None"
        },
        {
            "definition": {
                "trialId": "B1_T75",
                "blockIndex": 0,
                "trialIndex": 74,
                "isPractice": false,
                "modality": 2,
                "speed": 1,
                "width": 1,
                "vibrationStage": 0
            },
            "trialStartTime": 320.8240755881519,
            "loomOnsetTime": 320.8240755881519,
            "crossingD7Time": 320.8240755881519,
            "crossingD6Time": 321.4645490929705,
            "crossingD5Time": 321.7845992913832,
            "crossingD4Time": 322.06356079223357,
            "crossingD3Time": 322.35509659155329,
            "crossingD2Time": 322.67566909013609,
            "crossingD1Time": 323.3163354875283,
            "vibrationFiredTime": 320.8240755881519,
            "responseTime": 321.38112458900226,
            "responded": true,
            "reactionTimeMs": 557.0490112304688,
            "vibrationDeviceName": "None"
        },
        {
            "definition": {
                "trialId": "B1_T76",
                "blockIndex": 0,
                "trialIndex": 75,
                "isPractice": false,
                "modality": 2,
                "speed": 0,
                "width": 1,
                "vibrationStage": 3
            },
            "trialStartTime": 324.541072888322,
            "loomOnsetTime": 324.541072888322,
            "crossingD7Time": 324.541072888322,
            "crossingD6Time": 324.7920009920635,
            "crossingD5Time": 324.91647399376418,
            "crossingD4Time": 325.02853898809527,
            "crossingD3Time": 325.153693792517,
            "crossingD2Time": 325.27909289257368,
            "crossingD1Time": 325.5297545918367,
            "vibrationFiredTime": 325.02853898809527,
            "responseTime": 325.34842658730158,
            "responded": true,
            "reactionTimeMs": 319.8876037597656,
            "vibrationDeviceName": "None"
        },
        {
            "definition": {
                "trialId": "B1_T77",
                "blockIndex": 0,
                "trialIndex": 76,
                "isPractice": false,
                "modality": 2,
                "speed": 0,
                "width": 1,
                "vibrationStage": 6
            },
            "trialStartTime": 328.2582586876417,
            "loomOnsetTime": 328.2582586876417,
            "crossingD7Time": 328.2582586876417,
            "crossingD6Time": 328.50874299178,
            "crossingD5Time": 328.6341777919501,
            "crossingD4Time": 328.7455439909297,
            "crossingD3Time": 328.8706242913832,
            "crossingD2Time": 328.99614569160999,
            "crossingD1Time": 329.24699829223359,
            "vibrationFiredTime": 329.24699829223359,
            "responseTime": 329.58112579365078,
            "responded": true,
            "reactionTimeMs": 334.12750244140627,
            "vibrationDeviceName": "None"
        },
        {
            "definition": {
                "trialId": "B1_T78",
                "blockIndex": 0,
                "trialIndex": 77,
                "isPractice": false,
                "modality": 0,
                "speed": 0,
                "width": 1,
                "vibrationStage": -1
            },
            "trialStartTime": 331.97544899376416,
            "loomOnsetTime": 331.97544899376416,
            "crossingD7Time": 331.97544899376416,
            "crossingD6Time": 332.2257665887188,
            "crossingD5Time": 332.3513078939909,
            "crossingD4Time": 332.46283139172336,
            "crossingD3Time": 332.58820328798188,
            "crossingD2Time": 332.7135388888889,
            "crossingD1Time": 332.9639009920635,
            "vibrationFiredTime": NaN,
            "responseTime": NaN,
            "responded": false,
            "reactionTimeMs": NaN,
            "vibrationDeviceName": "None"
        },
        {
            "definition": {
                "trialId": "B1_T79",
                "blockIndex": 0,
                "trialIndex": 78,
                "isPractice": false,
                "modality": 1,
                "speed": 0,
                "width": 1,
                "vibrationStage": 5
            },
            "trialStartTime": 335.69272529053287,
            "loomOnsetTime": NaN,
            "crossingD7Time": NaN,
            "crossingD6Time": NaN,
            "crossingD5Time": NaN,
            "crossingD4Time": NaN,
            "crossingD3Time": NaN,
            "crossingD2Time": NaN,
            "crossingD1Time": NaN,
            "vibrationFiredTime": 336.4443781887755,
            "responseTime": 336.7508712939342,
            "responded": true,
            "reactionTimeMs": 306.49310302734377,
            "vibrationDeviceName": "None"
        },
        {
            "definition": {
                "trialId": "B1_T80",
                "blockIndex": 0,
                "trialIndex": 79,
                "isPractice": false,
                "modality": 2,
                "speed": 0,
                "width": 1,
                "vibrationStage": 3
            },
            "trialStartTime": 339.4099776927437,
            "loomOnsetTime": 339.4099776927437,
            "crossingD7Time": 339.4099776927437,
            "crossingD6Time": 339.66034639314059,
            "crossingD5Time": 339.7854932893991,
            "crossingD4Time": 339.8974151927438,
            "crossingD3Time": 340.02252828798188,
            "crossingD2Time": 340.1477699900793,
            "crossingD1Time": 340.398316893424,
            "vibrationFiredTime": 339.8974151927438,
            "responseTime": 340.2593275935374,
            "responded": true,
            "reactionTimeMs": 361.91241455078127,
            "vibrationDeviceName": "None"
        },
        {
            "definition": {
                "trialId": "B1_T81",
                "blockIndex": 0,
                "trialIndex": 80,
                "isPractice": false,
                "modality": 2,
                "speed": 0,
                "width": 1,
                "vibrationStage": 1
            },
            "trialStartTime": 343.12679798752836,
            "loomOnsetTime": 343.12679798752836,
            "crossingD7Time": 343.12679798752836,
            "crossingD6Time": 343.37742458900228,
            "crossingD5Time": 343.50296748866216,
            "crossingD4Time": 343.61418579223359,
            "crossingD3Time": 343.7394504889456,
            "crossingD2Time": 343.8649225907029,
            "crossingD1Time": 344.11542568735828,
            "vibrationFiredTime": 343.37742458900228,
            "responseTime": 343.69770179280047,
            "responded": true,
            "reactionTimeMs": 320.2771911621094,
            "vibrationDeviceName": "None"
        },
        {
            "definition": {
                "trialId": "B1_T82",
                "blockIndex": 0,
                "trialIndex": 81,
                "isPractice": false,
                "modality": 1,
                "speed": 0,
                "width": 1,
                "vibrationStage": 3
            },
            "trialStartTime": 346.84451349206349,
            "loomOnsetTime": NaN,
            "crossingD7Time": NaN,
            "crossingD6Time": NaN,
            "crossingD5Time": NaN,
            "crossingD4Time": NaN,
            "crossingD3Time": NaN,
            "crossingD2Time": NaN,
            "crossingD1Time": NaN,
            "vibrationFiredTime": 347.34555749007935,
            "responseTime": 347.6103294926304,
            "responded": true,
            "reactionTimeMs": 264.7720031738281,
            "vibrationDeviceName": "None"
        },
        {
            "definition": {
                "trialId": "B1_T83",
                "blockIndex": 0,
                "trialIndex": 82,
                "isPractice": false,
                "modality": 2,
                "speed": 1,
                "width": 1,
                "vibrationStage": 4
            },
            "trialStartTime": 350.56132378826529,
            "loomOnsetTime": 350.56132378826529,
            "crossingD7Time": 350.56132378826529,
            "crossingD6Time": 351.20195128968256,
            "crossingD5Time": 351.5219008928571,
            "crossingD4Time": 351.800997888322,
            "crossingD3Time": 352.0928617913832,
            "crossingD2Time": 352.4129154903628,
            "crossingD1Time": 353.0535066893424,
            "vibrationFiredTime": 352.0928617913832,
            "responseTime": 352.3991553925737,
            "responded": true,
            "reactionTimeMs": 306.2936096191406,
            "vibrationDeviceName": "None"
        },
        {
            "definition": {
                "trialId": "B1_T84",
                "blockIndex": 0,
                "trialIndex": 83,
                "isPractice": false,
                "modality": 2,
                "speed": 1,
                "width": 1,
                "vibrationStage": 6
            },
            "trialStartTime": 354.2787222930839,
            "loomOnsetTime": 354.2787222930839,
            "crossingD7Time": 354.2787222930839,
            "crossingD6Time": 354.91933299319728,
            "crossingD5Time": 355.2393453939909,
            "crossingD4Time": 355.517684289966,
            "crossingD3Time": 355.81023728741499,
            "crossingD2Time": 356.13036419359409,
            "crossingD1Time": 356.77042499291385,
            "vibrationFiredTime": 356.77042499291385,
            "responseTime": 357.049382390873,
            "responded": true,
            "reactionTimeMs": 278.9573974609375,
            "vibrationDeviceName": "None"
        },
        {
            "definition": {
                "trialId": "B1_T85",
                "blockIndex": 0,
                "trialIndex": 84,
                "isPractice": false,
                "modality": 2,
                "speed": 1,
                "width": 1,
                "vibrationStage": 2
            },
            "trialStartTime": 358.26060488945577,
            "loomOnsetTime": 358.26060488945577,
            "crossingD7Time": 358.26060488945577,
            "crossingD6Time": 358.900993792517,
            "crossingD5Time": 359.22151298894559,
            "crossingD4Time": 359.50005768849209,
            "crossingD3Time": 359.7924417871315,
            "crossingD2Time": 360.1126086876417,
            "crossingD1Time": 360.75352789115649,
            "vibrationFiredTime": 359.22151298894559,
            "responseTime": 359.51436048752836,
            "responded": true,
            "reactionTimeMs": 292.8475036621094,
            "vibrationDeviceName": "None"
        },
        {
            "definition": {
                "trialId": "B1_T86",
                "blockIndex": 0,
                "trialIndex": 85,
                "isPractice": false,
                "modality": 2,
                "speed": 1,
                "width": 1,
                "vibrationStage": 1
            },
            "trialStartTime": 361.97792049319727,
            "loomOnsetTime": 361.97792049319727,
            "crossingD7Time": 361.97792049319727,
            "crossingD6Time": 362.6183577876984,
            "crossingD5Time": 362.93874209183675,
            "crossingD4Time": 363.2170286918934,
            "crossingD3Time": 363.5094158871882,
            "crossingD2Time": 363.829570989229,
            "crossingD1Time": 364.470368792517,
            "vibrationFiredTime": 362.6183577876984,
            "responseTime": 362.96688428996597,
            "responded": true,
            "reactionTimeMs": 348.5264892578125,
            "vibrationDeviceName": "None"
        },
        {
            "definition": {
                "trialId": "B1_T87",
                "blockIndex": 0,
                "trialIndex": 86,
                "isPractice": false,
                "modality": 2,
                "speed": 0,
                "width": 1,
                "vibrationStage": 3
            },
            "trialStartTime": 365.6952340915533,
            "loomOnsetTime": 365.6952340915533,
            "crossingD7Time": 365.6952340915533,
            "crossingD6Time": 365.9461643920068,
            "crossingD5Time": 366.07094899376417,
            "crossingD4Time": 366.18271189058955,
            "crossingD3Time": 366.3080126913265,
            "crossingD2Time": 366.4332237882653,
            "crossingD1Time": 366.68360789399096,
            "vibrationFiredTime": 366.18271189058955,
            "responseTime": 366.4613330924036,
            "responded": true,
            "reactionTimeMs": 278.6212158203125,
            "vibrationDeviceName": "None"
        },
        {
            "definition": {
                "trialId": "B1_T88",
                "blockIndex": 0,
                "trialIndex": 87,
                "isPractice": false,
                "modality": 1,
                "speed": 0,
                "width": 1,
                "vibrationStage": 6
            },
            "trialStartTime": 369.41246118905897,
            "loomOnsetTime": NaN,
            "crossingD7Time": NaN,
            "crossingD6Time": NaN,
            "crossingD5Time": NaN,
            "crossingD4Time": NaN,
            "crossingD3Time": NaN,
            "crossingD2Time": NaN,
            "crossingD1Time": NaN,
            "vibrationFiredTime": 370.41437988945577,
            "responseTime": 370.69304209183675,
            "responded": true,
            "reactionTimeMs": 278.6622009277344,
            "vibrationDeviceName": "None"
        },
        {
            "definition": {
                "trialId": "B1_T89",
                "blockIndex": 0,
                "trialIndex": 88,
                "isPractice": false,
                "modality": 1,
                "speed": 0,
                "width": 1,
                "vibrationStage": 6
            },
            "trialStartTime": 373.12939109268708,
            "loomOnsetTime": NaN,
            "crossingD7Time": NaN,
            "crossingD6Time": NaN,
            "crossingD5Time": NaN,
            "crossingD4Time": NaN,
            "crossingD3Time": NaN,
            "crossingD2Time": NaN,
            "crossingD1Time": NaN,
            "vibrationFiredTime": 374.1316041879252,
            "responseTime": 374.39651959325399,
            "responded": true,
            "reactionTimeMs": 264.9154052734375,
            "vibrationDeviceName": "None"
        },
        {
            "definition": {
                "trialId": "B1_T90",
                "blockIndex": 0,
                "trialIndex": 89,
                "isPractice": false,
                "modality": 2,
                "speed": 1,
                "width": 1,
                "vibrationStage": 4
            },
            "trialStartTime": 376.84669719387758,
            "loomOnsetTime": 376.84669719387758,
            "crossingD7Time": 376.84669719387758,
            "crossingD6Time": 377.48742489370746,
            "crossingD5Time": 377.80753319160996,
            "crossingD4Time": 378.0863907879818,
            "crossingD3Time": 378.3788352891156,
            "crossingD2Time": 378.69920328798187,
            "crossingD1Time": 379.339483489229,
            "vibrationFiredTime": 378.3788352891156,
            "responseTime": 378.6433756873583,
            "responded": true,
            "reactionTimeMs": 264.5404052734375,
            "vibrationDeviceName": "None"
        },
        {
            "definition": {
                "trialId": "B1_T91",
                "blockIndex": 0,
                "trialIndex": 90,
                "isPractice": false,
                "modality": 0,
                "speed": 1,
                "width": 1,
                "vibrationStage": -1
            },
            "trialStartTime": 380.5644663903061,
            "loomOnsetTime": 380.5644663903061,
            "crossingD7Time": 380.5644663903061,
            "crossingD6Time": 381.20486279053287,
            "crossingD5Time": 381.52535459183675,
            "crossingD4Time": 381.80350418792519,
            "crossingD3Time": 382.0959189909297,
            "crossingD2Time": 382.41584049036279,
            "crossingD1Time": 383.0563189909297,
            "vibrationFiredTime": NaN,
            "responseTime": NaN,
            "responded": false,
            "reactionTimeMs": NaN,
            "vibrationDeviceName": "None"
        },
        {
            "definition": {
                "trialId": "B1_T92",
                "blockIndex": 0,
                "trialIndex": 91,
                "isPractice": false,
                "modality": 0,
                "speed": 1,
                "width": 1,
                "vibrationStage": -1
            },
            "trialStartTime": 384.2813066893424,
            "loomOnsetTime": 384.2813066893424,
            "crossingD7Time": 384.2813066893424,
            "crossingD6Time": 384.92195839002269,
            "crossingD5Time": 385.2419972930839,
            "crossingD4Time": 385.52033599064625,
            "crossingD3Time": 385.8128648880385,
            "crossingD2Time": 386.1331129889456,
            "crossingD1Time": 386.77330559098638,
            "vibrationFiredTime": NaN,
            "responseTime": NaN,
            "responded": false,
            "reactionTimeMs": NaN,
            "vibrationDeviceName": "None"
        },
        {
            "definition": {
                "trialId": "B1_T93",
                "blockIndex": 0,
                "trialIndex": 92,
                "isPractice": false,
                "modality": 2,
                "speed": 1,
                "width": 1,
                "vibrationStage": 5
            },
            "trialStartTime": 387.99839858985259,
            "loomOnsetTime": 387.99839858985259,
            "crossingD7Time": 387.99839858985259,
            "crossingD6Time": 388.6391033871882,
            "crossingD5Time": 388.959096789966,
            "crossingD4Time": 389.2375946924603,
            "crossingD3Time": 389.53013728741498,
            "crossingD2Time": 389.8499287910998,
            "crossingD1Time": 390.49052129393427,
            "vibrationFiredTime": 389.8499287910998,
            "responseTime": 390.19818638747167,
            "responded": true,
            "reactionTimeMs": 348.2575988769531,
            "vibrationDeviceName": "None"
        },
        {
            "definition": {
                "trialId": "B1_T94",
                "blockIndex": 0,
                "trialIndex": 93,
                "isPractice": false,
                "modality": 1,
                "speed": 1,
                "width": 1,
                "vibrationStage": 1
            },
            "trialStartTime": 391.71535969387755,
            "loomOnsetTime": NaN,
            "crossingD7Time": NaN,
            "crossingD6Time": NaN,
            "crossingD5Time": NaN,
            "crossingD4Time": NaN,
            "crossingD3Time": NaN,
            "crossingD2Time": NaN,
            "crossingD1Time": NaN,
            "vibrationFiredTime": 392.36984919217687,
            "responseTime": 392.71782828798185,
            "responded": true,
            "reactionTimeMs": 347.9790954589844,
            "vibrationDeviceName": "None"
        },
        {
            "definition": {
                "trialId": "B1_T95",
                "blockIndex": 0,
                "trialIndex": 94,
                "isPractice": false,
                "modality": 2,
                "speed": 1,
                "width": 1,
                "vibrationStage": 6
            },
            "trialStartTime": 395.44620608701816,
            "loomOnsetTime": 395.44620608701816,
            "crossingD7Time": 395.44620608701816,
            "crossingD6Time": 396.0866473922902,
            "crossingD5Time": 396.4066600907029,
            "crossingD4Time": 396.6849424886621,
            "crossingD3Time": 396.9775851899093,
            "crossingD2Time": 397.2977527919501,
            "crossingD1Time": 397.93796539115649,
            "vibrationFiredTime": 397.93796539115649,
            "responseTime": 398.18540379109978,
            "responded": true,
            "reactionTimeMs": 247.4384002685547,
            "vibrationDeviceName": "None"
        },
        {
            "definition": {
                "trialId": "B1_T96",
                "blockIndex": 0,
                "trialIndex": 95,
                "isPractice": false,
                "modality": 2,
                "speed": 1,
                "width": 1,
                "vibrationStage": 0
            },
            "trialStartTime": 399.38637399376418,
            "loomOnsetTime": 399.38637399376418,
            "crossingD7Time": 399.38637399376418,
            "crossingD6Time": 400.0264010912698,
            "crossingD5Time": 400.34671488803857,
            "crossingD4Time": 400.62538299319729,
            "crossingD3Time": 400.9178625921202,
            "crossingD2Time": 401.23778908730159,
            "crossingD1Time": 401.8781797902494,
            "vibrationFiredTime": 399.38637399376418,
            "responseTime": 403.32622298752838,
            "responded": true,
            "reactionTimeMs": 3939.848876953125,
            "vibrationDeviceName": "None"
        },
        {
            "definition": {
                "trialId": "B1_T97",
                "blockIndex": 0,
                "trialIndex": 96,
                "isPractice": false,
                "modality": 2,
                "speed": 0,
                "width": 1,
                "vibrationStage": 3
            },
            "trialStartTime": 404.5371169926304,
            "loomOnsetTime": 404.5371169926304,
            "crossingD7Time": 404.5371169926304,
            "crossingD6Time": 404.78788339002269,
            "crossingD5Time": 404.9128984906462,
            "crossingD4Time": 405.02456959325397,
            "crossingD3Time": 405.14984428854879,
            "crossingD2Time": 405.2750737882653,
            "crossingD1Time": 405.52565029053286,
            "vibrationFiredTime": 405.02456959325397,
            "responseTime": 405.34472259070295,
            "responded": true,
            "reactionTimeMs": 320.1529846191406,
            "vibrationDeviceName": "None"
        },
        {
            "definition": {
                "trialId": "B1_T98",
                "blockIndex": 0,
                "trialIndex": 97,
                "isPractice": false,
                "modality": 2,
                "speed": 0,
                "width": 1,
                "vibrationStage": 5
            },
            "trialStartTime": 408.2542790887188,
            "loomOnsetTime": 408.2542790887188,
            "crossingD7Time": 408.2542790887188,
            "crossingD6Time": 408.5175878897392,
            "crossingD5Time": 408.6301106930272,
            "crossingD4Time": 408.7416616921769,
            "crossingD3Time": 408.8669252905329,
            "crossingD2Time": 408.99214739229026,
            "crossingD1Time": 409.2426519912131,
            "vibrationFiredTime": 408.99214739229026,
            "responseTime": 409.29855868764175,
            "responded": true,
            "reactionTimeMs": 306.4112854003906,
            "vibrationDeviceName": "None"
        },
        {
            "definition": {
                "trialId": "B1_T99",
                "blockIndex": 0,
                "trialIndex": 98,
                "isPractice": false,
                "modality": 1,
                "speed": 0,
                "width": 1,
                "vibrationStage": 1
            },
            "trialStartTime": 411.9716518920068,
            "loomOnsetTime": NaN,
            "crossingD7Time": NaN,
            "crossingD6Time": NaN,
            "crossingD5Time": NaN,
            "crossingD4Time": NaN,
            "crossingD3Time": NaN,
            "crossingD2Time": NaN,
            "crossingD1Time": NaN,
            "vibrationFiredTime": 412.2361154903628,
            "responseTime": 412.58390218962588,
            "responded": true,
            "reactionTimeMs": 347.7867126464844,
            "vibrationDeviceName": "None"
        },
        {
            "definition": {
                "trialId": "B1_T100",
                "blockIndex": 0,
                "trialIndex": 99,
                "isPractice": false,
                "modality": 0,
                "speed": 0,
                "width": 1,
                "vibrationStage": -1
            },
            "trialStartTime": 415.6892483914399,
            "loomOnsetTime": 415.6892483914399,
            "crossingD7Time": 415.6892483914399,
            "crossingD6Time": 415.9393794926304,
            "crossingD5Time": 416.0649480938208,
            "crossingD4Time": 416.17598898809526,
            "crossingD3Time": 416.3014590915533,
            "crossingD2Time": 416.42659589002269,
            "crossingD1Time": 416.67726609268706,
            "vibrationFiredTime": NaN,
            "responseTime": NaN,
            "responded": false,
            "reactionTimeMs": NaN,
            "vibrationDeviceName": "None"
        },
        {
            "definition": {
                "trialId": "B1_T101",
                "blockIndex": 0,
                "trialIndex": 100,
                "isPractice": false,
                "modality": 1,
                "speed": 0,
                "width": 1,
                "vibrationStage": 5
            },
            "trialStartTime": 419.4060082908163,
            "loomOnsetTime": NaN,
            "crossingD7Time": NaN,
            "crossingD6Time": NaN,
            "crossingD5Time": NaN,
            "crossingD4Time": NaN,
            "crossingD3Time": NaN,
            "crossingD2Time": NaN,
            "crossingD1Time": NaN,
            "vibrationFiredTime": 420.15767419217687,
            "responseTime": 420.4503165887188,
            "responded": true,
            "reactionTimeMs": 292.64239501953127,
            "vibrationDeviceName": "None"
        },
        {
            "definition": {
                "trialId": "B1_T102",
                "blockIndex": 0,
                "trialIndex": 101,
                "isPractice": false,
                "modality": 2,
                "speed": 1,
                "width": 1,
                "vibrationStage": 4
            },
            "trialStartTime": 423.12312548894558,
            "loomOnsetTime": 423.12312548894558,
            "crossingD7Time": 423.12312548894558,
            "crossingD6Time": 423.76371118905896,
            "crossingD5Time": 424.0836658871882,
            "crossingD4Time": 424.3622398880385,
            "crossingD3Time": 424.65477388747169,
            "crossingD2Time": 424.9753572916666,
            "crossingD1Time": 425.6156214923469,
            "vibrationFiredTime": 424.65477388747169,
            "responseTime": 424.919172087585,
            "responded": true,
            "reactionTimeMs": 264.398193359375,
            "vibrationDeviceName": "None"
        },
        {
            "definition": {
                "trialId": "B1_T103",
                "blockIndex": 0,
                "trialIndex": 102,
                "isPractice": false,
                "modality": 1,
                "speed": 1,
                "width": 1,
                "vibrationStage": 4
            },
            "trialStartTime": 426.8411721938775,
            "loomOnsetTime": NaN,
            "crossingD7Time": NaN,
            "crossingD6Time": NaN,
            "crossingD5Time": NaN,
            "crossingD4Time": NaN,
            "crossingD3Time": NaN,
            "crossingD2Time": NaN,
            "crossingD1Time": NaN,
            "vibrationFiredTime": 428.3866096938775,
            "responseTime": 428.73536758786846,
            "responded": true,
            "reactionTimeMs": 348.7579040527344,
            "vibrationDeviceName": "None"
        },
        {
            "definition": {
                "trialId": "B1_T104",
                "blockIndex": 0,
                "trialIndex": 103,
                "isPractice": false,
                "modality": 2,
                "speed": 1,
                "width": 1,
                "vibrationStage": 2
            },
            "trialStartTime": 430.5723184878118,
            "loomOnsetTime": 430.5723184878118,
            "crossingD7Time": 430.5723184878118,
            "crossingD6Time": 431.2126943877551,
            "crossingD5Time": 431.533016893424,
            "crossingD4Time": 431.81086339285715,
            "crossingD3Time": 432.1035522888322,
            "crossingD2Time": 432.4233907879818,
