subject_id,session_number,block_number,trial_number,trial_type,response_made,current_speed,width,distance_level,trial_start_ms,stimulus_onset_ms,position_D7_ms,position_D6_ms,position_D5_ms,position_D4_ms,position_D3_ms,position_D2_ms,position_D1_ms,vibrotactile_onset_ms,response_time_ms,reaction_time_ms,vibration_device,trial_interrupted,timestamp
theo,1,1,1,VT,1,slow,narrow,D4,41519.326,41519.326,41519.326,42160.035,42480.050,42758.599,43050.836,43371.077,44011.196,42758.599,43078.712,320.1,None,0,2026-07-09T15:18:14.1847017+02:00
theo,1,1,2,T,1,slow,narrow,D4,45236.689,,,,,,,,,46489.981,46782.197,292.2,None,0,2026-07-09T15:18:17.9014310+02:00
theo,1,1,3,VT,1,slow,narrow,D5,48954.267,48954.267,48954.267,49594.039,49914.710,50192.820,50485.504,50805.595,51446.175,49914.710,50206.707,292.0,None,0,2026-07-09T15:18:21.6180363+02:00
theo,1,1,4,VT,1,fast,narrow,D3,52671.219,52671.219,52671.219,52922.080,53047.156,53158.665,53284.104,53409.691,53660.267,53284.104,53548.637,264.5,None,0,2026-07-09T15:18:25.3361693+02:00
theo,1,1,5,VT,1,fast,narrow,D5,56388.913,56388.913,56388.913,56639.652,56765.041,56876.427,57001.725,57127.384,57377.666,56765.041,57001.725,236.7,None,0,2026-07-09T15:18:29.0547129+02:00
theo,1,1,6,VT,1,fast,narrow,D6,60106.575,60106.575,60106.575,60357.017,60482.226,60593.529,60718.963,60844.173,61094.962,60357.017,60649.638,292.6,None,0,2026-07-09T15:18:32.7705132+02:00
theo,1,1,7,VT,1,slow,narrow,D4,63824.025,63824.025,63824.025,64464.779,64784.961,65063.255,65355.613,65675.886,66316.634,65063.255,65300.130,236.9,None,0,2026-07-09T15:18:36.4885183+02:00
theo,1,1,8,T,1,slow,narrow,D7,67541.608,,,,,,,,,67541.608,73040.420,5498.8,None,0,2026-07-09T15:18:43.2006093+02:00
theo,1,1,9,VT,1,slow,narrow,D6,74251.274,74251.274,74251.274,74891.890,75211.869,75489.857,75782.249,76102.651,76743.078,74891.890,75225.549,333.7,None,0,2026-07-09T15:18:46.9151895+02:00
theo,1,1,10,VT,1,slow,narrow,D7,77968.238,77968.238,77968.238,78608.517,78928.717,79207.412,79499.858,79820.046,80460.564,77968.238,80057.016,2088.8,None,0,2026-07-09T15:18:50.6326824+02:00
theo,1,1,11,VT,1,fast,narrow,D3,81685.956,81685.956,81685.956,81936.608,82061.528,82172.944,82298.427,82423.635,82674.274,82298.427,82618.668,320.2,None,0,2026-07-09T15:18:54.3504464+02:00
theo,1,1,12,T,1,fast,narrow,D1,85403.143,,,,,,,,,86406.173,86725.668,319.5,None,0,2026-07-09T15:18:58.0672710+02:00
theo,1,1,13,VT,1,fast,narrow,D5,89119.962,89119.962,89119.962,89370.678,89495.662,89606.947,89732.140,89857.981,90108.324,89495.662,89815.739,320.1,None,0,2026-07-09T15:19:01.7841193+02:00
theo,1,1,14,VT,1,slow,narrow,D4,92836.678,92836.678,92836.678,93477.415,93797.469,94075.837,94367.849,94688.112,95328.431,94075.837,94409.772,333.9,None,0,2026-07-09T15:19:05.5006933+02:00
theo,1,1,15,VT,1,slow,narrow,D1,96554.314,96554.314,96554.314,97194.211,97514.381,97792.889,98085.219,98405.100,99045.715,99045.715,99324.168,278.5,None,0,2026-07-09T15:19:09.4841695+02:00
theo,1,1,16,VT,1,slow,narrow,D6,100535.535,100535.535,100535.535,101175.532,101495.762,101774.187,102066.655,102386.715,103027.474,101175.532,101509.992,334.5,None,0,2026-07-09T15:19:13.2002680+02:00
theo,1,1,17,VT,1,slow,narrow,D2,104252.225,104252.225,104252.225,104892.677,105212.986,105576.950,105779.726,106101.855,106742.640,106101.855,106394.666,292.8,None,0,2026-07-09T15:19:16.9154386+02:00
theo,1,1,18,T,1,slow,narrow,D4,107969.078,,,,,,,,,109233.984,109497.711,263.7,None,0,2026-07-09T15:19:20.6462655+02:00
theo,1,1,19,T,1,slow,narrow,D1,111699.609,,,,,,,,,114206.658,114457.436,250.8,None,0,2026-07-09T15:19:24.6173978+02:00
theo,1,1,20,VT,1,fast,narrow,D3,115668.707,115668.707,115668.707,115919.358,116044.730,116155.963,116281.559,116406.513,116657.358,116281.559,116629.585,348.0,None,0,2026-07-09T15:19:28.3339336+02:00
theo,1,1,21,VT,1,fast,narrow,D7,119386.085,119386.085,119386.085,119636.734,119762.007,119873.171,119998.564,120124.190,120374.298,119386.085,120277.388,891.3,None,0,2026-07-09T15:19:32.0518424+02:00
theo,1,1,22,T,1,fast,narrow,D7,123103.547,,,,,,,,,123103.547,123744.067,640.5,None,0,2026-07-09T15:19:35.7687806+02:00
theo,1,1,23,VT,1,fast,narrow,D7,126821.237,126821.237,126821.237,127072.195,127197.722,127308.760,127433.962,127559.518,127809.681,126821.237,127280.862,459.6,None,0,2026-07-09T15:19:39.4857618+02:00
theo,1,1,24,T,1,slow,narrow,D4,130538.454,,,,,,,,,131791.444,132125.878,334.4,None,0,2026-07-09T15:19:43.2029315+02:00
theo,1,1,25,T,1,slow,narrow,D1,134255.495,,,,,,,,,136761.110,137053.284,292.2,None,0,2026-07-09T15:19:47.2129342+02:00
theo,1,1,26,V,0,slow,narrow,,138264.495,138264.495,138264.495,138904.466,139224.863,139503.193,139795.672,140116.093,140756.435,,,,None,0,2026-07-09T15:19:50.9290024+02:00
theo,1,1,27,T,1,slow,narrow,D2,141981.709,,,,,,,,,143847.022,144139.185,292.2,None,0,2026-07-09T15:19:54.6605855+02:00
theo,1,1,28,T,1,fast,narrow,D3,145712.467,,,,,,,,,146339.260,146700.766,361.5,None,0,2026-07-09T15:19:58.3768275+02:00
theo,1,1,29,VT,1,fast,narrow,D3,149429.708,149429.708,149429.708,149680.009,149805.438,149916.639,150041.943,150167.485,150418.132,150041.943,150348.673,306.7,None,0,2026-07-09T15:20:02.0943501+02:00
theo,1,1,30,T,1,fast,narrow,D4,153146.767,,,,,,,,,153647.818,153912.394,264.6,None,0,2026-07-09T15:20:05.8113856+02:00
theo,1,1,31,VT,1,slow,narrow,D4,156863.872,156863.872,156863.872,157504.443,157824.665,158103.072,158395.418,158715.407,159355.787,158103.072,158423.468,320.4,None,0,2026-07-09T15:20:09.5284920+02:00
theo,1,1,32,T,1,slow,narrow,D5,160581.338,,,,,,,,,161555.382,162001.146,445.8,None,0,2026-07-09T15:20:13.2602573+02:00
theo,1,1,33,VT,1,slow,narrow,D1,164312.703,164312.703,164312.703,164953.244,165273.517,165552.362,165844.695,166151.225,166805.449,166805.449,167125.985,320.5,None,0,2026-07-09T15:20:17.2859900+02:00
theo,1,1,34,T,1,fast,narrow,D3,168337.010,,,,,,,,,168963.182,169255.927,292.7,None,0,2026-07-09T15:20:21.0024354+02:00
theo,1,1,35,T,1,fast,narrow,D6,172053.897,,,,,,,,,172318.121,173404.386,1086.3,None,0,2026-07-09T15:20:24.7188479+02:00
theo,1,1,36,V,0,fast,narrow,,175770.832,175770.832,175770.832,176020.986,176146.179,176257.866,176383.082,176508.451,176758.666,,,,None,0,2026-07-09T15:20:28.4352527+02:00
theo,1,1,37,V,0,fast,narrow,,179487.638,179487.638,179487.638,179738.243,179863.308,179974.963,180100.109,180225.478,180476.021,,,,None,0,2026-07-09T15:20:32.1527824+02:00
theo,1,1,38,T,1,fast,narrow,D4,183203.368,,,,,,,,,183705.190,184150.831,445.6,None,0,2026-07-09T15:20:35.8692401+02:00
theo,1,1,39,T,1,slow,narrow,D4,186922.127,,,,,,,,,188174.758,188481.002,306.2,None,0,2026-07-09T15:20:39.5867079+02:00
theo,1,1,40,VT,1,slow,narrow,D5,190638.785,190638.785,190638.785,191279.140,191599.691,191876.992,192169.328,192490.031,193130.255,191599.691,191919.110,319.4,None,0,2026-07-09T15:20:43.3033637+02:00
theo,1,1,41,VT,1,slow,narrow,D6,194355.505,194355.505,194355.505,194996.088,195316.482,195594.867,195887.163,196193.863,196847.367,194996.088,195302.687,306.6,None,0,2026-07-09T15:20:47.0199013+02:00
theo,1,1,42,V,0,slow,narrow,,198072.997,198072.997,198072.997,198713.461,199034.005,199312.599,199604.971,199911.464,200565.819,,,,None,0,2026-07-09T15:20:50.7393757+02:00
theo,1,1,43,VT,1,slow,narrow,D7,201791.361,201791.361,201791.361,202431.509,202751.821,203030.379,203322.910,203643.380,204283.663,201791.361,202097.129,305.8,None,0,2026-07-09T15:20:54.4569125+02:00
theo,1,1,44,T,1,slow,narrow,D6,205509.029,,,,,,,,,206162.848,206427.483,264.6,None,0,2026-07-09T15:20:58.1877027+02:00
theo,1,1,45,VT,1,fast,narrow,D3,209238.981,209238.981,209238.981,209490.060,209615.107,209726.504,209852.012,209977.594,210227.753,209852.012,210144.178,292.2,None,0,2026-07-09T15:21:01.9042558+02:00
theo,1,1,46,T,1,fast,narrow,D2,212956.171,,,,,,,,,213707.823,213958.654,250.8,None,0,2026-07-09T15:21:05.6212408+02:00
theo,1,1,47,T,1,fast,narrow,D7,216673.368,,,,,,,,,216673.368,217271.886,598.5,None,0,2026-07-09T15:21:09.3381459+02:00
theo,1,1,48,VT,1,fast,narrow,D2,220390.140,220390.140,220390.140,220640.951,220766.319,220877.537,221003.373,221128.247,221506.080,221128.247,221506.080,377.8,None,0,2026-07-09T15:21:13.0566414+02:00
theo,1,1,49,VT,1,slow,narrow,D4,224107.146,224107.146,224107.146,224747.865,225067.815,225346.329,225638.961,225958.745,226599.256,225346.329,225666.379,320.1,None,0,2026-07-09T15:21:16.7733183+02:00
theo,1,1,50,T,1,slow,narrow,D2,227824.325,,,,,,,,,229689.863,230010.462,320.6,None,0,2026-07-09T15:21:20.5040324+02:00
theo,1,1,51,VT,1,slow,narrow,D3,231555.334,231555.334,231555.334,232195.905,232516.397,232794.689,233086.978,233407.303,234047.670,233086.978,233463.320,376.3,None,0,2026-07-09T15:21:24.2207514+02:00
theo,1,1,52,VT,1,slow,narrow,D4,235273.490,235273.490,235273.490,235913.801,236234.050,236513.102,236805.797,237111.828,237766.421,236513.102,236819.405,306.3,None,0,2026-07-09T15:21:27.9394917+02:00
theo,1,1,53,T,1,fast,narrow,D3,238991.378,,,,,,,,,239617.958,240063.271,445.3,None,0,2026-07-09T15:21:31.6568413+02:00
theo,1,1,54,VT,1,fast,narrow,D7,242708.070,242708.070,242708.070,242958.477,243083.819,243195.175,243320.529,243445.873,243696.677,242708.070,243348.470,640.4,None,0,2026-07-09T15:21:35.3739939+02:00
theo,1,1,55,V,0,fast,narrow,,246425.214,246425.214,246425.214,246675.978,246801.279,246912.457,247037.956,247162.909,247413.699,,,,None,0,2026-07-09T15:21:39.0904860+02:00
theo,1,1,56,T,1,slow,narrow,D3,250142.569,,,,,,,,,251687.859,251952.649,264.8,None,0,2026-07-09T15:21:42.8218053+02:00
theo,1,1,57,VT,1,slow,narrow,D2,253873.338,253873.338,253873.338,254513.886,254833.867,255112.355,255404.805,255725.215,256365.436,255725.215,256004.074,278.9,None,0,2026-07-09T15:21:46.5387220+02:00
theo,1,1,58,V,0,slow,narrow,,257590.585,257590.585,257590.585,258230.904,258551.005,258829.504,259122.004,259442.010,260082.076,,,,None,0,2026-07-09T15:21:50.2558524+02:00
theo,1,1,59,V,0,slow,narrow,,261307.414,261307.414,261307.414,261948.081,262268.328,262546.988,262839.226,263159.483,263799.870,,,,None,0,2026-07-09T15:21:53.9731644+02:00
theo,1,1,60,VT,1,fast,narrow,D3,265025.125,265025.125,265025.125,265275.462,265400.692,265512.400,265637.434,265762.514,266013.314,265637.434,265929.884,292.5,None,0,2026-07-09T15:21:57.6894866+02:00
theo,1,1,61,T,1,fast,narrow,D1,268741.480,,,,,,,,,269744.423,270050.418,306.0,None,0,2026-07-09T15:22:01.4073254+02:00
theo,1,1,62,VT,1,fast,narrow,D4,272458.319,272458.319,272458.319,272708.861,272834.441,272945.830,273071.050,273196.474,273447.131,272945.830,273293.528,347.7,None,0,2026-07-09T15:22:05.1248169+02:00
theo,1,1,63,VT,1,fast,narrow,D5,276176.783,276176.783,276176.783,276426.994,276552.254,276663.975,276789.546,276914.411,277165.138,276552.254,276845.055,292.8,None,0,2026-07-09T15:22:08.8422402+02:00
theo,1,1,64,T,1,slow,narrow,D3,279893.548,,,,,,,,,281439.063,281689.837,250.8,None,0,2026-07-09T15:22:12.5733123+02:00
theo,1,1,65,T,1,slow,narrow,D5,283625.212,,,,,,,,,284599.471,284920.280,320.8,None,0,2026-07-09T15:22:16.3044149+02:00
theo,1,1,66,T,1,slow,narrow,D3,287355.929,,,,,,,,,288901.550,289180.025,278.5,None,0,2026-07-09T15:22:20.0354367+02:00
theo,1,1,67,T,1,fast,narrow,D3,291087.403,,,,,,,,,291713.766,292020.082,306.3,None,0,2026-07-09T15:22:23.7529819+02:00
theo,1,1,68,T,1,fast,narrow,D5,294804.252,,,,,,,,,295194.377,295500.455,306.1,None,0,2026-07-09T15:22:27.4696551+02:00
theo,1,1,69,V,0,fast,narrow,,298521.062,298521.062,298521.062,298771.994,298896.950,299008.748,299133.736,299259.097,299509.130,,,,None,0,2026-07-09T15:22:31.1865245+02:00
theo,1,1,70,VT,1,fast,narrow,D5,302237.932,302237.932,302237.932,302488.583,302614.094,302725.271,302850.513,302975.827,303226.457,302614.094,302919.977,305.9,None,0,2026-07-09T15:22:34.9036592+02:00
theo,1,1,71,VT,1,fast,narrow,D5,305956.190,305956.190,305956.190,306206.520,306331.575,306443.237,306568.373,306693.799,306944.301,306331.575,306651.987,320.4,None,0,2026-07-09T15:22:38.6222876+02:00
theo,1,1,72,VT,1,fast,narrow,D5,309674.546,309674.546,309674.546,309924.504,310049.973,310161.461,310286.777,310412.000,310662.703,310049.973,310342.501,292.5,None,0,2026-07-09T15:22:42.3400029+02:00
theo,1,1,73,VT,1,slow,narrow,D3,313390.464,313390.464,313390.464,314031.113,314351.367,314629.815,314921.882,315242.512,315882.547,314921.882,315270.102,348.2,None,0,2026-07-09T15:22:46.0560378+02:00
theo,1,1,74,VT,1,slow,narrow,D5,317108.201,317108.201,317108.201,317748.263,318068.357,318346.602,318639.085,318959.035,319599.093,318068.357,318430.160,361.8,None,0,2026-07-09T15:22:49.7731324+02:00
theo,1,1,75,VT,1,slow,narrow,D7,320824.076,320824.076,320824.076,321464.549,321784.599,322063.561,322355.097,322675.669,323316.335,320824.076,321381.125,557.0,None,0,2026-07-09T15:22:53.4896863+02:00
theo,1,1,76,VT,1,fast,narrow,D4,324541.073,324541.073,324541.073,324792.001,324916.474,325028.539,325153.694,325279.093,325529.755,325028.539,325348.427,319.9,None,0,2026-07-09T15:22:57.2070073+02:00
theo,1,1,77,VT,1,fast,narrow,D1,328258.259,328258.259,328258.259,328508.743,328634.178,328745.544,328870.624,328996.146,329246.998,329246.998,329581.126,334.1,None,0,2026-07-09T15:23:00.9239461+02:00
theo,1,1,78,V,0,fast,narrow,,331975.449,331975.449,331975.449,332225.767,332351.308,332462.831,332588.203,332713.539,332963.901,,,,None,0,2026-07-09T15:23:04.6412805+02:00
theo,1,1,79,T,1,fast,narrow,D2,335692.725,,,,,,,,,336444.378,336750.871,306.5,None,0,2026-07-09T15:23:08.3581032+02:00
theo,1,1,80,VT,1,fast,narrow,D4,339409.978,339409.978,339409.978,339660.346,339785.493,339897.415,340022.528,340147.770,340398.317,339897.415,340259.328,361.9,None,0,2026-07-09T15:23:12.0746197+02:00
theo,1,1,81,VT,1,fast,narrow,D6,343126.798,343126.798,343126.798,343377.425,343502.967,343614.186,343739.450,343864.923,344115.426,343377.425,343697.702,320.3,None,0,2026-07-09T15:23:15.7925283+02:00
theo,1,1,82,T,1,fast,narrow,D4,346844.513,,,,,,,,,347345.557,347610.329,264.8,None,0,2026-07-09T15:23:19.5107116+02:00
theo,1,1,83,VT,1,slow,narrow,D3,350561.324,350561.324,350561.324,351201.951,351521.901,351800.998,352092.862,352412.915,353053.507,352092.862,352399.155,306.3,None,0,2026-07-09T15:23:23.2271736+02:00
theo,1,1,84,VT,1,slow,narrow,D1,354278.722,354278.722,354278.722,354919.333,355239.345,355517.684,355810.237,356130.364,356770.425,356770.425,357049.382,279.0,None,0,2026-07-09T15:23:27.2101788+02:00
theo,1,1,85,VT,1,slow,narrow,D5,358260.605,358260.605,358260.605,358900.994,359221.513,359500.058,359792.442,360112.609,360753.528,359221.513,359514.360,292.8,None,0,2026-07-09T15:23:30.9273709+02:00
theo,1,1,86,VT,1,slow,narrow,D6,361977.920,361977.920,361977.920,362618.358,362938.742,363217.029,363509.416,363829.571,364470.369,362618.358,362966.884,348.5,None,0,2026-07-09T15:23:34.6436856+02:00
theo,1,1,87,VT,1,fast,narrow,D4,365695.234,365695.234,365695.234,365946.164,366070.949,366182.712,366308.013,366433.224,366683.608,366182.712,366461.333,278.6,None,0,2026-07-09T15:23:38.3614483+02:00
theo,1,1,88,T,1,fast,narrow,D1,369412.461,,,,,,,,,370414.380,370693.042,278.7,None,0,2026-07-09T15:23:42.0785366+02:00
theo,1,1,89,T,1,fast,narrow,D1,373129.391,,,,,,,,,374131.604,374396.520,264.9,None,0,2026-07-09T15:23:45.7953347+02:00
theo,1,1,90,VT,1,slow,narrow,D3,376846.697,376846.697,376846.697,377487.425,377807.533,378086.391,378378.835,378699.203,379339.483,378378.835,378643.376,264.5,None,0,2026-07-09T15:23:49.5134860+02:00
theo,1,1,91,V,0,slow,narrow,,380564.466,380564.466,380564.466,381204.863,381525.355,381803.504,382095.919,382415.840,383056.319,,,,None,0,2026-07-09T15:23:53.2303121+02:00
theo,1,1,92,V,0,slow,narrow,,384281.307,384281.307,384281.307,384921.958,385241.997,385520.336,385812.865,386133.113,386773.306,,,,None,0,2026-07-09T15:23:56.9470724+02:00
theo,1,1,93,VT,1,slow,narrow,D2,387998.399,387998.399,387998.399,388639.103,388959.097,389237.595,389530.137,389849.929,390490.521,389849.929,390198.186,348.3,None,0,2026-07-09T15:24:00.6642071+02:00
theo,1,1,94,T,1,slow,narrow,D6,391715.360,,,,,,,,,392369.849,392717.828,348.0,None,0,2026-07-09T15:24:04.3951655+02:00
theo,1,1,95,VT,1,slow,narrow,D1,395446.206,395446.206,395446.206,396086.647,396406.660,396684.942,396977.585,397297.753,397937.965,397937.965,398185.404,247.4,None,0,2026-07-09T15:24:08.3461894+02:00
theo,1,1,96,VT,1,slow,narrow,D7,399386.374,399386.374,399386.374,400026.401,400346.715,400625.383,400917.863,401237.789,401878.180,399386.374,403326.223,3939.8,None,0,2026-07-09T15:24:13.4870247+02:00
theo,1,1,97,VT,1,fast,narrow,D4,404537.117,404537.117,404537.117,404787.883,404912.898,405024.570,405149.844,405275.074,405525.650,405024.570,405344.723,320.2,None,0,2026-07-09T15:24:17.2033567+02:00
theo,1,1,98,VT,1,fast,narrow,D2,408254.279,408254.279,408254.279,408517.588,408630.111,408741.662,408866.925,408992.147,409242.652,408992.147,409298.559,306.4,None,0,2026-07-09T15:24:20.9203944+02:00
theo,1,1,99,T,1,fast,narrow,D6,411971.652,,,,,,,,,412236.115,412583.902,347.8,None,0,2026-07-09T15:24:24.6371599+02:00
theo,1,1,100,V,0,fast,narrow,,415689.248,415689.248,415689.248,415939.379,416064.948,416175.989,416301.459,416426.596,416677.266,,,,None,0,2026-07-09T15:24:28.3547547+02:00
theo,1,1,101,T,1,fast,narrow,D2,419406.008,,,,,,,,,420157.674,420450.317,292.6,None,0,2026-07-09T15:24:32.0716500+02:00
theo,1,1,102,VT,1,slow,narrow,D3,423123.125,423123.125,423123.125,423763.711,424083.666,424362.240,424654.774,424975.357,425615.621,424654.774,424919.172,264.4,None,0,2026-07-09T15:24:35.7896326+02:00
theo,1,1,103,T,1,slow,narrow,D3,426841.172,,,,,,,,,428386.610,428735.368,348.8,None,0,2026-07-09T15:24:39.5210127+02:00
theo,1,1,104,VT,1,slow,narrow,D5,430572.318,430572.318,430572.318,431212.694,431533.017,431810.863,432103.552,432423.391,433063.792,431533.017,431852.951,319.9,None,0,2026-07-09T15:24:43.2375198+02:00
theo,1,1,105,VT,1,fast,narrow,D4,434289.010,434289.010,434289.010,434539.850,434665.057,434776.389,434901.714,435027.121,435277.709,434776.389,435124.578,348.2,None,0,2026-07-09T15:24:46.9547171+02:00
theo,1,1,106,VT,1,fast,narrow,D2,438006.612,438006.612,438006.612,438257.485,438382.819,438494.386,438619.455,438744.956,438995.423,438744.956,439037.144,292.2,None,0,2026-07-09T15:24:50.6727609+02:00
theo,1,1,107,T,1,fast,narrow,D6,441724.465,,,,,,,,,441988.378,442350.834,362.5,None,0,2026-07-09T15:24:54.3903947+02:00
theo,1,1,108,T,1,fast,narrow,D4,445441.238,,,,,,,,,445942.320,446262.527,320.2,None,0,2026-07-09T15:24:58.1074090+02:00
theo,1,1,109,VT,1,fast,narrow,D2,449158.365,449158.365,449158.365,449408.662,449534.076,449645.453,449757.748,449896.454,450147.119,449896.454,450174.865,278.4,None,0,2026-07-09T15:25:01.8251782+02:00
theo,1,1,110,VT,1,fast,narrow,D2,452875.964,452875.964,452875.964,,453310.905,453362.743,453488.305,453613.668,453863.841,453613.668,453905.808,292.1,None,0,2026-07-09T15:25:05.5414971+02:00
theo,1,1,111,VT,1,slow,narrow,D3,456593.382,456593.382,456593.382,457233.778,457554.046,457832.771,458124.805,458444.786,459085.348,458124.805,458500.847,376.0,None,0,2026-07-09T15:25:09.2589914+02:00
theo,1,1,112,T,1,slow,narrow,D6,460310.450,,,,,,,,,460964.696,461285.315,320.6,None,0,2026-07-09T15:25:12.9903490+02:00
theo,1,1,113,VT,1,slow,narrow,D5,464041.098,464041.098,464041.098,464681.331,465001.657,465280.113,465572.269,465892.425,466533.274,465001.657,465365.612,364.0,None,0,2026-07-09T15:25:16.7071271+02:00
theo,1,1,114,T,1,slow,narrow,D7,467758.016,,,,,,,,,467758.016,468384.489,626.5,None,0,2026-07-09T15:25:20.4234007+02:00
theo,1,1,115,VT,1,fast,narrow,D6,471474.345,471474.345,471474.345,471725.115,471850.198,471961.497,472087.007,472212.308,472462.747,471725.115,472031.140,306.0,None,0,2026-07-09T15:25:24.1412989+02:00
theo,1,1,116,VT,1,fast,narrow,D1,475191.723,475191.723,475191.723,475442.341,475567.579,475679.214,475804.435,475929.676,476180.318,476180.318,476444.741,264.4,None,0,2026-07-09T15:25:27.8573990+02:00
theo,1,1,117,VT,1,fast,narrow,D7,478908.792,478908.792,478908.792,479159.359,479284.537,479395.905,479521.396,479646.689,479897.253,478908.792,479604.926,696.1,None,0,2026-07-09T15:25:31.5744489+02:00
theo,1,1,118,VT,1,slow,narrow,D1,482625.872,482625.872,482625.872,483266.228,483586.642,483865.045,484157.452,484477.857,485118.393,485118.393,485480.595,362.2,None,0,2026-07-09T15:25:35.6420710+02:00
theo,1,1,119,VT,1,slow,narrow,D6,486691.319,486691.319,486691.319,487331.916,487651.816,487930.618,488222.408,488542.787,489183.429,487331.916,487721.486,389.6,None,0,2026-07-09T15:25:39.3574815+02:00
theo,1,1,120,T,1,slow,narrow,D6,490409.146,,,,,,,,,491063.372,491398.004,334.6,None,0,2026-07-09T15:25:43.0895570+02:00
theo,1,1,121,T,1,fast,narrow,D5,494139.705,,,,,,,,,494530.166,494808.168,278.0,None,0,2026-07-09T15:25:46.8062276+02:00
theo,1,1,122,T,1,fast,narrow,D5,497857.309,,,,,,,,,498247.156,498512.095,264.9,None,0,2026-07-09T15:25:50.5237164+02:00
theo,1,1,123,VT,1,fast,narrow,D1,501574.892,501574.892,501574.892,501825.999,501950.699,502062.322,502187.417,502312.683,502563.344,502563.344,502842.056,278.7,None,0,2026-07-09T15:25:54.2415189+02:00
theo,1,1,124,VT,1,slow,narrow,D2,505292.113,505292.113,505292.113,505932.450,506252.691,506531.020,506823.815,507143.756,507784.000,507143.756,507463.952,320.2,None,0,2026-07-09T15:25:57.9583386+02:00
theo,1,1,125,T,1,slow,narrow,D1,509009.039,,,,,,,,,511514.797,511876.998,362.2,None,0,2026-07-09T15:26:02.0387062+02:00
theo,1,1,126,VT,1,slow,narrow,D7,513088.241,513088.241,513088.241,513728.443,514048.587,514327.075,514619.421,514939.522,515579.834,513088.241,513477.993,389.8,None,0,2026-07-09T15:26:05.7535291+02:00
theo,1,1,127,VT,1,fast,narrow,D6,516804.802,516804.802,516804.802,517055.592,517180.474,517292.060,517417.614,517542.747,517793.066,517055.592,517528.365,472.8,None,0,2026-07-09T15:26:09.4712903+02:00
theo,1,1,128,VT,1,fast,narrow,D2,520521.745,520521.745,520521.745,520772.168,520897.147,521008.942,521120.296,521259.613,521510.354,521259.613,521566.028,306.4,None,0,2026-07-09T15:26:13.1891334+02:00
theo,1,1,129,VT,1,fast,narrow,D7,524239.829,524239.829,524239.829,524490.583,524615.867,524727.492,524852.315,524977.749,525228.334,524239.829,524810.741,570.9,None,0,2026-07-09T15:26:16.9065742+02:00
theo,1,1,130,VT,1,slow,narrow,D2,527957.156,527957.156,527957.156,528597.728,528917.947,529196.530,529488.793,529808.762,530448.982,529808.762,530142.796,334.0,None,0,2026-07-09T15:26:20.6233450+02:00
theo,1,1,131,T,1,slow,narrow,D5,531674.454,,,,,,,,,532648.511,533135.490,487.0,None,0,2026-07-09T15:26:24.3544153+02:00
theo,1,1,132,T,1,slow,narrow,D7,535405.002,,,,,,,,,535405.002,535850.738,445.7,None,0,2026-07-09T15:26:28.0714438+02:00
theo,1,1,133,T,1,slow,narrow,D7,539122.371,,,,,,,,,539122.371,539456.739,334.4,None,0,2026-07-09T15:26:31.7887050+02:00
theo,1,1,134,VT,1,slow,narrow,D2,542839.348,542839.348,542839.348,543479.650,543800.349,544078.522,544370.725,544691.396,545331.902,544691.396,544969.610,278.2,None,0,2026-07-09T15:26:35.5063187+02:00
theo,1,1,135,VT,1,slow,narrow,D6,546557.057,546557.057,546557.057,547197.445,547517.618,547795.969,548088.458,548408.416,549048.682,547197.445,547517.618,320.2,None,0,2026-07-09T15:26:39.2231094+02:00
theo,1,1,136,T,1,slow,narrow,D5,550273.799,,,,,,,,,551248.363,551499.085,250.7,None,0,2026-07-09T15:26:42.9536139+02:00
theo,1,1,137,VT,1,fast,narrow,D1,554005.211,554005.211,554005.211,554255.656,554381.005,554492.126,554617.840,554742.890,554993.425,554993.425,555246.463,253.0,None,0,2026-07-09T15:26:46.6722344+02:00
theo,1,1,138,V,0,fast,narrow,,557722.727,557722.727,557722.727,557973.293,558098.759,558210.079,558337.061,558460.698,558710.702,,,,None,0,2026-07-09T15:26:50.3891391+02:00
theo,1,1,139,T,1,fast,narrow,D7,561439.854,,,,,,,,,561439.854,562038.895,599.0,None,0,2026-07-09T15:26:54.1062100+02:00
theo,1,1,140,T,1,slow,narrow,D2,565157.173,,,,,,,,,567022.248,567328.358,306.1,None,0,2026-07-09T15:26:57.8367255+02:00
theo,1,1,141,T,1,slow,narrow,D1,568887.600,,,,,,,,,571393.591,571672.433,278.8,None,0,2026-07-09T15:27:01.8339280+02:00
theo,1,1,142,VT,1,slow,narrow,D1,572883.573,572883.573,572883.573,573523.894,573843.981,574122.534,574414.647,574735.023,575375.228,575375.228,575695.536,320.3,None,0,2026-07-09T15:27:05.8563235+02:00
theo,1,1,143,T,1,fast,narrow,D5,576906.764,,,,,,,,,577296.522,577769.940,473.4,None,0,2026-07-09T15:27:09.5733388+02:00
theo,1,1,144,VT,1,fast,narrow,D6,580625.806,580625.806,580625.806,580875.367,581000.521,581112.434,581223.734,581362.965,581613.390,580875.367,581195.860,320.5,None,0,2026-07-09T15:27:13.2907635+02:00
theo,1,1,145,T,1,fast,narrow,D2,584342.391,,,,,,,,,585093.974,585372.970,279.0,None,0,2026-07-09T15:27:17.0085883+02:00
theo,1,1,146,VT,1,fast,narrow,D7,588059.022,588059.022,588059.022,588309.846,588434.576,588546.512,588671.624,588796.790,589047.479,588059.022,588490.327,431.3,None,0,2026-07-09T15:27:20.7260782+02:00
theo,1,1,147,VT,1,fast,narrow,D6,591775.733,591775.733,591775.733,592026.287,592151.684,592263.127,592388.213,592514.054,592764.226,592026.287,592290.645,264.4,None,0,2026-07-09T15:27:24.4420321+02:00
theo,1,1,148,T,1,slow,narrow,D2,595492.827,,,,,,,,,597358.329,597678.793,320.5,None,0,2026-07-09T15:27:28.1728760+02:00
theo,1,1,149,V,0,slow,narrow,,599224.257,599224.257,599224.257,599864.897,600185.068,600463.861,600755.787,601075.813,601716.399,,,,None,0,2026-07-09T15:27:31.8903130+02:00
theo,1,1,150,VT,1,slow,narrow,D7,602941.596,602941.596,602941.596,603581.932,603902.817,604180.854,604473.003,604793.207,605433.854,602941.596,603373.262,431.7,None,0,2026-07-09T15:27:35.6079021+02:00
theo,1,1,151,T,1,fast,narrow,D7,606659.170,,,,,,,,,606659.170,607076.465,417.3,None,0,2026-07-09T15:27:39.3249384+02:00
theo,1,1,152,T,1,fast,narrow,D6,610376.130,,,,,,,,,610640.273,610918.665,278.4,None,0,2026-07-09T15:27:43.0419947+02:00
theo,1,1,153,VT,1,fast,narrow,D1,614092.778,614092.778,614092.778,614343.116,614468.539,614579.746,614705.214,614830.634,615080.900,615080.900,615345.447,264.5,None,0,2026-07-09T15:27:46.7582898+02:00
theo,1,1,154,VT,1,fast,narrow,D1,617809.220,617809.220,617809.220,618059.573,618185.238,618296.636,618421.861,618547.034,618798.040,618798.040,619049.485,251.4,None,0,2026-07-09T15:27:50.4752940+02:00
theo,1,2,1,VT,1,fast,narrow,D4,632330.253,632330.253,632330.253,632581.163,632706.450,632817.793,632942.945,633068.207,633318.982,632817.793,633137.948,320.2,None,0,2026-07-09T15:28:04.9972072+02:00
theo,1,2,2,T,1,fast,narrow,D3,636047.989,,,,,,,,,636674.371,636994.995,320.6,None,0,2026-07-09T15:28:08.7146789+02:00
theo,1,2,3,VT,1,fast,narrow,D5,639766.049,639766.049,639766.049,640016.666,640142.184,640253.177,640378.476,640503.552,640754.531,640142.184,640448.389,306.2,None,0,2026-07-09T15:28:12.4326118+02:00
theo,1,2,4,T,1,fast,narrow,D1,643482.891,,,,,,,,,644485.210,644791.434,306.2,None,0,2026-07-09T15:28:16.1492031+02:00
theo,1,2,5,VT,1,fast,narrow,D2,647199.627,647199.627,647199.627,647449.965,647575.403,647686.727,647811.951,647937.365,648188.000,647937.365,648201.993,264.6,None,0,2026-07-09T15:28:19.8660717+02:00
theo,1,2,6,VT,1,slow,narrow,D3,650916.576,650916.576,650916.576,651556.913,651876.916,652155.757,652447.957,652767.647,653408.213,652447.957,652740.215,292.3,None,0,2026-07-09T15:28:23.5830663+02:00
theo,1,2,7,VT,1,slow,narrow,D7,654633.137,654633.137,654633.137,655274.385,655593.601,655873.615,656164.093,656484.649,657124.892,654633.137,655245.996,612.9,None,0,2026-07-09T15:28:27.2993115+02:00
theo,1,2,8,T,1,slow,narrow,D3,658350.385,,,,,,,,,659896.367,660203.133,306.8,None,0,2026-07-09T15:28:31.0320195+02:00
theo,1,2,9,VT,1,fast,narrow,D4,662082.942,662082.942,662082.942,662333.722,662459.163,662570.506,662695.888,662821.219,663071.930,662570.506,662835.167,264.7,None,0,2026-07-09T15:28:34.7504626+02:00
theo,1,2,10,VT,1,fast,narrow,D5,665800.374,665800.374,665800.374,666050.366,666176.143,666287.761,666412.925,666538.161,666788.459,666176.143,666454.755,278.6,None,0,2026-07-09T15:28:38.4676798+02:00
theo,1,2,11,T,1,fast,narrow,D1,669517.296,,,,,,,,,670519.833,670854.017,334.2,None,0,2026-07-09T15:28:42.1847195+02:00
theo,1,2,12,V,0,fast,narrow,,673234.438,673234.438,673234.438,673485.199,673609.911,673721.366,673846.586,673971.829,674222.423,,,,None,0,2026-07-09T15:28:45.9011236+02:00
theo,1,2,13,VT,1,fast,narrow,D7,676951.296,676951.296,676951.296,677202.344,677327.346,677439.181,677564.322,677689.473,677940.066,676951.296,677424.938,473.6,None,0,2026-07-09T15:28:49.6185254+02:00
theo,1,2,14,VT,1,slow,narrow,D3,680668.290,680668.290,680668.290,681308.804,681629.024,681907.481,682200.147,682520.318,683160.542,682200.147,682576.181,376.0,None,0,2026-07-09T15:28:53.3355407+02:00
theo,1,2,15,VT,1,slow,narrow,D6,684385.693,684385.693,684385.693,685067.671,685346.193,685624.429,685916.913,686223.395,686877.181,685067.671,685457.465,389.8,None,0,2026-07-09T15:28:57.0526804+02:00
theo,1,2,16,T,1,slow,narrow,D4,688102.401,,,,,,,,,689355.518,689760.133,404.6,None,0,2026-07-09T15:29:00.7701041+02:00
theo,1,2,17,VT,1,fast,narrow,D4,691818.664,691818.664,691818.664,692069.765,692194.976,692306.230,692431.358,692557.141,692807.347,692306.230,692668.110,361.9,None,0,2026-07-09T15:29:04.4865014+02:00
theo,1,2,18,T,1,fast,narrow,D1,695536.317,,,,,,,,,696538.649,696844.653,306.0,None,0,2026-07-09T15:29:08.2034797+02:00
theo,1,2,19,T,1,fast,narrow,D7,699253.590,,,,,,,,,699253.590,699893.732,640.1,None,0,2026-07-09T15:29:11.9204102+02:00
theo,1,2,20,VT,1,slow,narrow,D3,702970.238,702970.238,702970.238,703610.797,703931.099,704209.729,704501.777,704808.702,705462.293,704501.777,704822.674,320.9,None,0,2026-07-09T15:29:15.6378282+02:00
theo,1,2,21,T,1,slow,narrow,D6,706687.744,,,,,,,,,707341.738,708135.458,793.7,None,0,2026-07-09T15:29:19.3654991+02:00
theo,1,2,22,VT,1,slow,narrow,D5,710416.559,710416.559,710416.559,711057.845,711378.722,711656.784,711949.187,712255.930,712910.555,711378.722,711726.395,347.7,None,0,2026-07-09T15:29:23.0866060+02:00
theo,1,2,23,V,0,slow,narrow,,714135.776,714135.776,714135.776,714776.051,715096.646,715374.809,715667.162,715973.975,716627.752,,,,None,0,2026-07-09T15:29:26.8040772+02:00
theo,1,2,24,T,1,fast,narrow,D4,717853.360,,,,,,,,,718354.525,718688.359,333.8,None,0,2026-07-09T15:29:30.5205507+02:00
theo,1,2,25,VT,1,fast,narrow,D4,721570.147,721570.147,721570.147,721820.806,721945.904,722057.620,722182.901,722308.220,722558.612,722057.620,722405.546,347.9,None,0,2026-07-09T15:29:34.2381823+02:00
theo,1,2,26,VT,1,fast,narrow,D3,725287.655,725287.655,725287.655,725538.287,725663.454,725774.735,725900.100,726025.472,726276.214,725900.100,726234.540,334.4,None,0,2026-07-09T15:29:37.9559810+02:00
theo,1,2,27,VT,1,slow,narrow,D3,729004.646,729004.646,729004.646,729645.267,729965.889,730243.746,730536.398,730842.870,731497.155,730536.398,730898.707,362.3,None,0,2026-07-09T15:29:41.6730838+02:00
theo,1,2,28,VT,1,slow,narrow,D2,732722.241,732722.241,732722.241,733362.308,733682.646,733961.518,734254.095,734573.550,735215.620,734573.550,734907.438,333.9,None,0,2026-07-09T15:29:45.3927581+02:00
theo,1,2,29,T,1,slow,narrow,D6,736439.559,,,,,,,,,737093.875,737442.085,348.2,None,0,2026-07-09T15:29:49.1214946+02:00
theo,1,2,30,V,0,slow,narrow,,740171.073,740171.073,740171.073,740811.620,741131.497,741410.349,741702.501,742022.547,742662.848,,,,None,0,2026-07-09T15:29:52.8392994+02:00
theo,1,2,31,VT,1,fast,narrow,D4,743888.014,743888.014,743888.014,744138.539,744264.040,744375.452,744500.468,744625.828,744877.121,744375.452,744751.020,375.6,None,0,2026-07-09T15:29:56.5557368+02:00
theo,1,2,32,VT,1,fast,narrow,D2,747604.778,747604.778,747604.778,747855.750,747980.600,748092.107,748217.423,748342.875,748593.403,748342.875,748663.656,320.8,None,0,2026-07-09T15:30:00.2747775+02:00
theo,1,2,33,T,1,fast,narrow,D4,751321.737,,,,,,,,,751823.489,752255.331,431.8,None,0,2026-07-09T15:30:03.9909255+02:00
theo,1,2,34,VT,1,fast,narrow,D6,755039.668,755039.668,755039.668,755290.605,755415.479,755527.022,755652.567,755777.593,756028.319,755290.605,755624.288,333.7,None,0,2026-07-09T15:30:07.7087228+02:00
theo,1,2,35,VT,1,slow,narrow,D3,758757.357,758757.357,758757.357,759398.274,759718.249,759996.543,760288.850,760609.255,761249.888,760288.850,760664.910,376.1,None,0,2026-07-09T15:30:11.4256815+02:00
theo,1,2,36,T,1,slow,narrow,D5,762474.534,,,,,,,,,763448.687,763824.955,376.3,None,0,2026-07-09T15:30:15.1564022+02:00
theo,1,2,37,VT,1,slow,narrow,D5,766204.743,766204.743,766204.743,766845.300,767165.784,767443.812,767736.095,768055.885,768696.681,767165.784,767471.616,305.8,None,0,2026-07-09T15:30:18.8730926+02:00
theo,1,2,38,VT,1,fast,narrow,D4,769921.696,769921.696,769921.696,770172.436,770297.523,770408.785,770534.408,770659.386,770910.236,770408.785,770743.329,334.5,None,0,2026-07-09T15:30:22.5910702+02:00
theo,1,2,39,T,1,fast,narrow,D4,773638.950,,,,,,,,,774140.263,774474.362,334.1,None,0,2026-07-09T15:30:26.3078751+02:00
theo,1,2,40,VT,1,fast,narrow,D7,777356.077,777356.077,777356.077,777606.685,777732.066,777843.692,777968.957,778093.831,778344.019,777356.077,777982.507,626.4,None,0,2026-07-09T15:30:30.0256206+02:00
theo,1,2,41,V,0,fast,narrow,,781075.012,781075.012,781075.012,781323.812,781448.586,781560.057,781685.512,781810.740,782061.632,,,,None,0,2026-07-09T15:30:33.7426230+02:00
theo,1,2,42,T,1,slow,narrow,D3,784790.810,,,,,,,,,786335.860,786725.858,390.0,None,0,2026-07-09T15:30:37.4736673+02:00
theo,1,2,43,V,0,slow,narrow,,788521.518,788521.518,788521.518,789161.989,789482.257,789760.746,790052.966,790372.850,791013.446,,,,None,0,2026-07-09T15:30:41.1906329+02:00
theo,1,2,44,VT,1,slow,narrow,D1,792238.623,792238.623,792238.623,792879.250,793199.152,793477.888,793770.266,794090.449,794730.989,794730.989,795051.028,320.0,None,0,2026-07-09T15:30:45.2152347+02:00
theo,1,2,45,T,1,fast,narrow,D4,796262.349,,,,,,,,,796763.603,797112.043,348.4,None,0,2026-07-09T15:30:48.9323001+02:00
theo,1,2,46,T,1,fast,narrow,D1,799980.063,,,,,,,,,800982.282,801915.358,933.1,None,0,2026-07-09T15:30:52.6491959+02:00
theo,1,2,47,VT,1,fast,narrow,D5,803696.945,803696.945,803696.945,803947.577,804072.900,804184.293,804309.746,804434.837,804685.368,804072.900,804407.018,334.1,None,0,2026-07-09T15:30:56.3662439+02:00
theo,1,2,48,VT,1,slow,narrow,D3,807413.731,807413.731,807413.731,808054.182,808374.527,808652.801,808945.532,809265.296,809906.017,808945.532,809265.296,319.8,None,0,2026-07-09T15:31:00.0838094+02:00
theo,1,2,49,VT,1,slow,narrow,D6,811131.230,811131.230,811131.230,811771.594,812092.074,812370.967,812662.804,812982.987,813623.544,811771.594,812036.376,264.8,None,0,2026-07-09T15:31:03.8011983+02:00
theo,1,2,50,T,1,slow,narrow,D5,814846.880,,,,,,,,,815821.755,816114.723,293.0,None,0,2026-07-09T15:31:07.5192374+02:00
theo,1,2,51,VT,1,slow,narrow,D7,818565.560,818565.560,818565.560,819206.462,819527.026,819805.160,820097.726,820417.829,821058.274,818565.560,819136.783,571.2,None,0,2026-07-09T15:31:11.2365329+02:00
theo,1,2,52,VT,1,fast,narrow,D3,822283.524,822283.524,822283.524,822533.612,822659.191,822770.528,822895.987,823021.401,823271.765,822895.987,823188.298,292.3,None,0,2026-07-09T15:31:14.9533547+02:00
theo,1,2,53,VT,1,fast,narrow,D1,826000.668,826000.668,826000.668,826251.103,826376.309,826487.290,826612.945,826737.725,826988.803,826988.803,827238.836,250.0,None,0,2026-07-09T15:31:18.6704437+02:00
theo,1,2,54,VT,1,fast,narrow,D3,829717.762,829717.762,829717.762,829968.367,830093.876,830205.364,830316.959,830456.498,830706.542,830316.959,830609.392,292.4,None,0,2026-07-09T15:31:22.3880040+02:00
theo,1,2,55,VT,1,fast,narrow,D5,833435.623,833435.623,833435.623,833685.386,833810.912,833922.180,834047.926,834173.090,834423.884,833810.912,834173.090,362.2,None,0,2026-07-09T15:31:26.1058817+02:00
theo,1,2,56,T,1,slow,narrow,D3,837152.166,,,,,,,,,838697.544,839045.778,348.2,None,0,2026-07-09T15:31:29.8362378+02:00
theo,1,2,57,VT,1,slow,narrow,D7,840883.341,840883.341,840883.341,841523.800,841843.850,842122.440,842414.947,842735.020,843375.412,840883.341,841523.800,640.5,None,0,2026-07-09T15:31:33.5535992+02:00
theo,1,2,58,VT,1,slow,narrow,D2,844600.478,844600.478,844600.478,845240.660,845561.306,845839.559,846131.977,846452.095,847092.200,846452.095,846924.791,472.7,None,0,2026-07-09T15:31:37.2707051+02:00
theo,1,2,59,VT,1,fast,narrow,D3,848316.950,848316.950,848316.950,848567.167,848692.737,848804.221,848915.661,849054.912,849305.210,848915.661,849416.996,501.3,None,0,2026-07-09T15:31:40.9872829+02:00
theo,1,2,60,T,1,fast,narrow,D6,852034.376,,,,,,,,,852298.943,852716.584,417.6,None,0,2026-07-09T15:31:44.7047598+02:00
theo,1,2,61,T,1,fast,narrow,D6,855751.885,,,,,,,,,856015.822,856364.166,348.3,None,0,2026-07-09T15:31:48.4213514+02:00
theo,1,2,62,T,1,fast,narrow,D2,859468.986,,,,,,,,,860220.932,860750.372,529.4,None,0,2026-07-09T15:31:52.1402197+02:00
theo,1,2,63,V,0,fast,narrow,,863187.266,863187.266,863187.266,863437.624,863562.888,863673.785,863799.462,863924.917,864175.555,,,,None,0,2026-07-09T15:31:55.8574800+02:00
theo,1,2,64,T,1,fast,narrow,D5,866903.691,,,,,,,,,867293.303,867766.743,473.4,None,0,2026-07-09T15:31:59.5737137+02:00
theo,1,2,65,T,1,slow,narrow,D3,870619.954,,,,,,,,,872165.345,872541.170,375.8,None,0,2026-07-09T15:32:03.3043102+02:00
theo,1,2,66,T,1,slow,narrow,D4,874351.013,,,,,,,,,875604.193,875952.432,348.2,None,0,2026-07-09T15:32:07.0223760+02:00
theo,1,2,67,V,0,slow,narrow,,878068.112,878068.112,878068.112,878708.492,879028.962,879307.298,879599.515,879919.834,880560.321,,,,None,0,2026-07-09T15:32:10.7393161+02:00
theo,1,2,68,VT,1,slow,narrow,D7,881785.463,881785.463,881785.463,882425.887,882745.967,883024.342,883316.811,883637.289,884277.638,881785.463,882383.989,598.5,None,0,2026-07-09T15:32:14.4563262+02:00
theo,1,2,69,T,1,fast,narrow,D3,885502.727,,,,,,,,,886128.994,886477.335,348.3,None,0,2026-07-09T15:32:18.1746039+02:00
theo,1,2,70,V,0,fast,narrow,,889220.022,889220.022,889220.022,889470.951,889596.089,889707.525,889832.863,889958.345,890208.789,,,,None,0,2026-07-09T15:32:21.8911883+02:00
theo,1,2,71,VT,1,fast,narrow,D7,892936.935,892936.935,892936.935,893187.837,893313.376,893424.170,893550.068,893675.536,893925.483,892936.935,894274.099,1337.2,None,0,2026-07-09T15:32:25.6080303+02:00
theo,1,2,72,V,0,fast,narrow,,896654.198,896654.198,896654.198,896904.949,897030.097,897141.669,897266.691,897392.091,897642.595,,,,None,0,2026-07-09T15:32:29.3251595+02:00
theo,1,2,73,VT,1,slow,narrow,D4,900371.380,900371.380,900371.380,901012.109,901332.765,901611.100,901903.442,902209.835,902864.108,901611.100,902001.389,390.3,None,0,2026-07-09T15:32:33.0434229+02:00
theo,1,2,74,T,1,slow,narrow,D1,904089.609,,,,,,,,,906595.376,906888.756,293.4,None,0,2026-07-09T15:32:37.0557257+02:00
theo,1,2,75,VT,1,slow,narrow,D1,908099.464,908099.464,908099.464,908740.151,909060.548,909339.295,909631.441,909938.039,910592.761,910592.761,910955.031,362.3,None,0,2026-07-09T15:32:41.1217485+02:00
theo,1,2,76,T,1,slow,narrow,D2,912165.713,,,,,,,,,914031.145,914379.165,348.0,None,0,2026-07-09T15:32:44.8514723+02:00
theo,1,2,77,T,1,fast,narrow,D3,915896.029,,,,,,,,,916522.341,916856.781,334.4,None,0,2026-07-09T15:32:48.5675578+02:00
theo,1,2,78,VT,1,fast,narrow,D3,919613.424,919613.424,919613.424,919864.046,919989.535,920100.636,920212.737,920351.311,920602.137,920212.737,920519.404,306.7,None,0,2026-07-09T15:32:52.2856475+02:00
theo,1,2,79,T,1,fast,narrow,D5,923331.578,,,,,,,,,923721.168,924097.491,376.3,None,0,2026-07-09T15:32:56.0029305+02:00
theo,1,2,80,T,1,fast,narrow,D2,927047.870,,,,,,,,,927799.902,928175.760,375.9,None,0,2026-07-09T15:32:59.7196182+02:00
theo,1,2,81,VT,1,fast,narrow,D7,930765.214,930765.214,930765.214,931015.856,931140.922,931252.253,931377.534,931502.873,931753.310,930765.214,931308.095,542.9,None,0,2026-07-09T15:33:03.4365833+02:00
theo,1,2,82,VT,1,fast,narrow,D7,934482.474,934482.474,934482.474,934732.905,934858.235,934969.651,935095.215,935220.480,935470.972,934482.474,935568.730,1086.3,None,0,2026-07-09T15:33:07.1543694+02:00
theo,1,2,83,V,0,fast,narrow,,938199.461,938199.461,938199.461,938449.332,938575.052,938686.453,938811.686,938936.965,939187.820,,,,None,0,2026-07-09T15:33:10.8716732+02:00
theo,1,2,84,VT,1,slow,narrow,D4,941916.453,941916.453,941916.453,942556.788,942877.038,943155.591,943447.815,943767.872,944408.389,943155.591,943489.386,333.8,None,0,2026-07-09T15:33:14.5881618+02:00
theo,1,2,85,T,1,slow,narrow,D5,945633.518,,,,,,,,,946607.621,946969.703,362.1,None,0,2026-07-09T15:33:18.3188960+02:00
theo,1,2,86,T,1,slow,narrow,D7,949363.645,,,,,,,,,949363.645,953262.344,3898.7,None,0,2026-07-09T15:33:23.4295697+02:00
theo,1,2,87,VT,1,slow,narrow,D4,954473.058,954473.058,954473.058,955113.565,955433.936,955712.861,956004.826,956325.011,956965.317,955712.861,956032.843,320.0,None,0,2026-07-09T15:33:27.1454449+02:00
theo,1,2,88,T,1,fast,narrow,D3,958190.535,,,,,,,,,958817.349,959165.239,347.9,None,0,2026-07-09T15:33:30.8621471+02:00
theo,1,2,89,T,1,fast,narrow,D5,961907.713,,,,,,,,,962297.470,962673.189,375.7,None,0,2026-07-09T15:33:34.5798224+02:00
theo,1,2,90,T,1,fast,narrow,D7,965625.347,,,,,,,,,965625.347,966251.629,626.3,None,0,2026-07-09T15:33:38.2967620+02:00
theo,1,2,91,VT,1,slow,narrow,D4,969341.782,969341.782,969341.782,969982.060,970302.403,970580.648,970873.138,971193.554,971833.830,970580.648,970915.022,334.4,None,0,2026-07-09T15:33:42.0137670+02:00
theo,1,2,92,VT,1,slow,narrow,D6,973059.044,973059.044,973059.044,973699.301,974019.554,974297.980,974590.264,974910.866,975551.329,973699.301,974005.404,306.1,None,0,2026-07-09T15:33:45.7313218+02:00
theo,1,2,93,VT,1,slow,narrow,D4,976776.499,976776.499,976776.499,977416.604,977736.835,978015.101,978307.913,978627.799,979268.304,978015.101,978335.631,320.5,None,0,2026-07-09T15:33:49.4492358+02:00
theo,1,2,94,VT,1,slow,narrow,D2,980492.893,980492.893,980492.893,981133.377,981453.382,981731.879,982024.252,982344.270,982984.733,982344.270,982678.460,334.2,None,0,2026-07-09T15:33:53.1647540+02:00
theo,1,2,95,VT,1,fast,narrow,D3,984210.635,984210.635,984210.635,984461.100,984586.524,984697.851,984823.041,984948.975,985199.320,984823.041,985157.712,334.7,None,0,2026-07-09T15:33:56.8827028+02:00
theo,1,2,96,T,1,fast,narrow,D7,987928.787,,,,,,,,,987928.787,988484.835,556.0,None,0,2026-07-09T15:34:00.5998356+02:00
theo,1,2,97,VT,1,fast,narrow,D2,991644.950,991644.950,991644.950,991895.427,992021.076,992132.030,992257.482,992382.407,992633.313,992382.407,992702.817,320.4,None,0,2026-07-09T15:34:04.3179364+02:00
theo,1,2,98,T,1,slow,narrow,D4,995363.255,,,,,,,,,996616.243,996936.261,320.0,None,0,2026-07-09T15:34:08.0350086+02:00
theo,1,2,99,T,1,slow,narrow,D7,999079.978,,,,,,,,,999079.978,999497.609,417.6,None,0,2026-07-09T15:34:11.7529641+02:00
theo,1,2,100,VT,1,slow,narrow,D7,1002797.391,1002797.391,1002797.391,1003437.539,1003757.965,1004036.262,1004328.497,1004648.924,1005289.011,1002797.391,1003660.590,863.2,None,0,2026-07-09T15:34:15.4692494+02:00
theo,1,2,101,T,1,slow,narrow,D2,1006513.837,,,,,,,,,1008502.809,1008946.437,443.6,None,0,2026-07-09T15:34:19.3209851+02:00
theo,1,2,102,VT,1,fast,narrow,D5,1010367.385,1010367.385,1010367.385,1010618.912,1010744.132,1010855.378,1010967.015,1011106.675,1011357.061,1010744.132,1011148.087,404.0,None,0,2026-07-09T15:34:23.0418996+02:00
theo,1,2,103,VT,1,fast,narrow,D1,1014086.985,1014086.985,1014086.985,1014337.424,1014463.054,1014574.285,1014699.352,1014824.892,1015075.396,1015075.396,1015321.111,245.7,None,0,2026-07-09T15:34:26.7594306+02:00
theo,1,2,104,VT,1,fast,narrow,D2,1017804.286,1017804.286,1017804.286,1018055.078,1018180.532,1018291.496,1018416.720,1018542.094,1018792.642,1018542.094,1018848.531,306.4,None,0,2026-07-09T15:34:30.4770279+02:00
theo,1,2,105,VT,1,fast,narrow,D1,1021521.501,1021521.501,1021521.501,1021772.255,1021897.271,1022008.582,1022133.890,1022259.414,1022509.963,1022509.963,1022788.465,278.5,None,0,2026-07-09T15:34:34.1941939+02:00
theo,1,2,106,VT,1,slow,narrow,D4,1025239.612,1025239.612,1025239.612,1025880.263,1026200.569,1026478.549,1026771.360,1027091.288,1027731.661,1026478.549,1026812.747,334.2,None,0,2026-07-09T15:34:37.9122466+02:00
theo,1,2,107,T,1,slow,narrow,D7,1028956.941,,,,,,,,,1028956.941,1029903.838,946.9,None,0,2026-07-09T15:34:41.6298219+02:00
theo,1,2,108,T,1,slow,narrow,D1,1032674.310,,,,,,,,,1035179.890,1035486.202,306.3,None,0,2026-07-09T15:34:45.6539501+02:00
theo,1,2,109,V,1,slow,narrow,,1036697.647,1036697.647,1036697.647,1037337.548,1037657.724,1037936.518,1038228.715,1038549.090,1039189.375,,1038660.089,,None,0,2026-07-09T15:34:49.3703482+02:00
theo,1,2,110,T,1,slow,narrow,D4,1040414.219,,,,,,,,,1041666.773,1041986.994,320.2,None,0,2026-07-09T15:34:53.0870346+02:00
theo,1,2,111,T,1,fast,narrow,D5,1044131.292,,,,,,,,,1044520.768,1045049.771,529.0,None,0,2026-07-09T15:34:56.8033882+02:00
theo,1,2,112,VT,1,fast,narrow,D6,1047847.828,1047847.828,1047847.828,1048098.718,1048223.850,1048334.938,1048460.292,1048585.873,1048836.611,1048098.718,1048906.653,807.9,None,0,2026-07-09T15:35:00.5209779+02:00
theo,1,2,113,VT,1,fast,narrow,D2,1051565.175,1051565.175,1051565.175,1051816.009,1051940.961,1052052.394,1052177.575,1052303.014,1052553.428,1052303.014,1052651.134,348.1,None,0,2026-07-09T15:35:04.2377188+02:00
theo,1,2,114,VT,1,slow,narrow,D5,1055282.230,1055282.230,1055282.230,1055922.779,1056242.649,1056521.115,1056813.437,1057133.999,1057774.674,1056242.649,1056716.251,473.6,None,0,2026-07-09T15:35:07.9552887+02:00
theo,1,2,115,VT,1,slow,narrow,D1,1058998.912,1058998.912,1058998.912,1059639.469,1059959.700,1060238.111,1060530.722,1060851.069,1061491.626,1061491.626,1061826.180,334.6,None,0,2026-07-09T15:35:11.9942258+02:00
theo,1,2,116,VT,1,slow,narrow,D5,1063037.352,1063037.352,1063037.352,1063677.598,1063997.870,1064276.243,1064568.564,1064888.654,1065529.131,1063997.870,1064513.235,515.4,None,0,2026-07-09T15:35:15.7102513+02:00
theo,1,2,117,T,1,slow,narrow,D5,1066753.974,,,,,,,,,1067729.097,1068313.207,584.1,None,0,2026-07-09T15:35:19.4404833+02:00
theo,1,2,118,VT,1,fast,narrow,D6,1070485.544,1070485.544,1070485.544,1070735.091,1070860.618,1070972.346,1071097.146,1071222.596,1071473.227,1070735.091,1071166.856,431.8,None,0,2026-07-09T15:35:23.1585654+02:00
theo,1,2,119,VT,1,fast,narrow,D5,1074202.886,1074202.886,1074202.886,1074452.942,1074578.306,1074689.677,1074815.253,1074940.404,1075190.930,1074578.306,1075010.283,432.0,None,0,2026-07-09T15:35:26.8748589+02:00
theo,1,2,120,T,1,fast,narrow,D2,1077919.304,,,,,,,,,1078671.767,1079144.670,472.9,None,0,2026-07-09T15:35:30.5927027+02:00
theo,1,2,121,V,0,slow,narrow,,1081637.207,1081637.207,1081637.207,1082277.409,1082597.696,1082876.077,1083168.159,1083488.500,1084129.629,,,,None,0,2026-07-09T15:35:34.3107230+02:00
theo,1,2,122,T,1,slow,narrow,D6,1085354.236,,,,,,,,,1086008.957,1086371.306,362.3,None,0,2026-07-09T15:35:38.0421947+02:00
theo,1,2,123,T,1,slow,narrow,D7,1089086.286,,,,,,,,,1089086.286,1089754.208,667.9,None,0,2026-07-09T15:35:41.7584499+02:00
theo,1,2,124,T,1,slow,narrow,D1,1092802.952,,,,,,,,,1095308.218,1095698.109,389.9,None,0,2026-07-09T15:35:45.8661547+02:00
theo,1,2,125,T,1,fast,narrow,D2,1096908.923,,,,,,,,,1097660.990,1098009.148,348.2,None,0,2026-07-09T15:35:49.5816263+02:00
theo,1,2,126,VT,1,fast,narrow,D2,1100626.454,1100626.454,1100626.454,1100877.270,1101002.596,1101114.000,1101238.969,1101364.527,1101615.257,1101364.527,1101699.207,334.7,None,0,2026-07-09T15:35:53.3001899+02:00
theo,1,2,127,VT,1,fast,narrow,D1,1104344.315,1104344.315,1104344.315,1104595.177,1104720.392,1104831.856,1104957.262,1105082.289,1105332.914,1105332.914,1105681.531,348.6,None,0,2026-07-09T15:35:57.0178711+02:00
theo,1,2,128,VT,1,slow,narrow,D6,1108061.295,1108061.295,1108061.295,1108701.736,1109022.290,1109300.550,1109592.812,1109912.965,1110553.925,1108701.736,1109036.082,334.3,None,0,2026-07-09T15:36:00.7360961+02:00
theo,1,2,129,VT,1,slow,narrow,D1,1111778.807,1111778.807,1111778.807,1112419.173,1112739.135,1113017.670,1113309.910,1113630.149,1114270.347,1114270.347,1114563.279,292.9,None,0,2026-07-09T15:36:04.7317505+02:00
theo,1,2,130,VT,1,slow,narrow,D6,1115774.257,1115774.257,1115774.257,1116414.350,1116734.733,1117013.564,1117305.342,1117625.507,1118265.873,1116414.350,1116832.243,417.9,None,0,2026-07-09T15:36:08.4474564+02:00
theo,1,2,131,VT,1,slow,narrow,D6,1119491.435,1119491.435,1119491.435,1120131.393,1120451.846,1120730.355,1121022.768,1121342.956,1121983.571,1120131.393,1120410.080,278.7,None,0,2026-07-09T15:36:12.1643100+02:00
theo,1,2,132,VT,1,slow,narrow,D2,1123208.932,1123208.932,1123208.932,1123849.198,1124168.956,1124447.298,1124739.909,1125059.888,1125700.185,1125059.888,1125352.290,292.4,None,0,2026-07-09T15:36:15.8813260+02:00
theo,1,2,133,VT,1,slow,narrow,D7,1126924.725,1126924.725,1126924.725,1127565.566,1127885.776,1128164.327,1128456.764,1128776.839,1129417.703,1126924.725,1127537.710,613.0,None,0,2026-07-09T15:36:19.5993902+02:00
theo,1,2,134,T,1,fast,narrow,D6,1130642.102,,,,,,,,,1130906.755,1131240.859,334.1,None,0,2026-07-09T15:36:23.3163224+02:00
theo,1,2,135,VT,1,fast,narrow,D6,1134359.437,1134359.437,1134359.437,1134610.248,1134735.685,1134847.096,1134971.944,1135097.497,1135348.564,1134610.248,1134986.057,375.8,None,0,2026-07-09T15:36:27.0328960+02:00
theo,1,2,136,VT,1,fast,narrow,D7,1138076.777,1138076.777,1138076.777,1138327.219,1138452.620,1138564.072,1138675.658,1138814.646,1139064.966,1138076.777,1138745.404,668.6,None,0,2026-07-09T15:36:30.7502289+02:00
theo,1,2,137,T,1,fast,narrow,D6,1141793.990,,,,,,,,,1142058.331,1142350.824,292.5,None,0,2026-07-09T15:36:34.4674063+02:00
theo,1,2,138,T,1,slow,narrow,D2,1145510.856,,,,,,,,,1147363.685,1147684.166,320.5,None,0,2026-07-09T15:36:38.1855084+02:00
theo,1,2,139,VT,1,slow,narrow,D5,1149229.771,1149229.771,1149229.771,1149871.083,1150190.483,1150468.724,1150761.375,1151081.428,1151721.575,1150190.483,1150565.969,375.5,None,0,2026-07-09T15:36:41.9028357+02:00
theo,1,2,140,T,1,slow,narrow,D6,1152946.725,,,,,,,,,1153601.518,1153866.126,264.6,None,0,2026-07-09T15:36:45.6346658+02:00
theo,1,2,141,VT,1,fast,narrow,D1,1156678.434,1156678.434,1156678.434,1156929.351,1157054.276,1157165.942,1157291.069,1157416.490,1157666.946,1157666.946,1157931.993,265.0,None,0,2026-07-09T15:36:49.3528180+02:00
theo,1,2,142,V,0,fast,narrow,,1160396.845,1160396.845,1160396.845,1160647.455,1160772.720,1160883.908,1161009.214,1161134.158,1161384.708,,,,None,0,2026-07-09T15:36:53.0699370+02:00
theo,1,2,143,VT,1,fast,narrow,D1,1164113.165,1164113.165,1164113.165,1164363.013,1164488.620,1164600.021,1164725.406,1164850.932,1165100.945,1165100.945,1165504.595,403.7,None,0,2026-07-09T15:36:56.7859118+02:00
theo,1,2,144,VT,1,slow,narrow,D2,1167829.307,1167829.307,1167829.307,1168469.865,1168790.019,1169068.353,1169360.854,1169680.882,1170321.523,1169680.882,1170042.586,361.7,None,0,2026-07-09T15:37:00.5029100+02:00
theo,1,2,145,VT,1,slow,narrow,D5,1171546.027,1171546.027,1171546.027,1172186.453,1172506.595,1172784.804,1173077.206,1173397.327,1174037.633,1172506.595,1172882.787,376.2,None,0,2026-07-09T15:37:04.2194432+02:00
theo,1,2,146,T,1,slow,narrow,D1,1175263.132,,,,,,,,,1177768.791,1178130.595,361.8,None,0,2026-07-09T15:37:08.2995913+02:00
theo,1,2,147,VT,1,slow,narrow,D2,1179341.603,1179341.603,1179341.603,1179982.069,1180302.253,1180580.655,1180873.056,1181193.352,1181833.824,1181193.352,1181500.045,306.7,None,0,2026-07-09T15:37:12.0155705+02:00
theo,1,2,148,V,0,slow,narrow,,1183058.837,1183058.837,1183058.837,1183699.265,1184019.619,1184297.817,1184590.527,1184910.463,1185551.260,,,,None,0,2026-07-09T15:37:15.7331036+02:00
theo,1,2,149,T,1,fast,narrow,D7,1186776.036,,,,,,,,,1186776.036,1191537.122,4761.1,None,0,2026-07-09T15:37:21.7057522+02:00
theo,1,2,150,VT,1,fast,narrow,D6,1192748.630,1192748.630,1192748.630,1192999.143,1193124.381,1193235.935,1193360.986,1193486.755,1193736.928,1192999.143,1193403.255,404.1,None,0,2026-07-09T15:37:25.4229215+02:00
theo,1,2,151,VT,1,fast,narrow,D6,1196465.863,1196465.863,1196465.863,1196716.888,1196841.879,1196953.351,1197078.922,1197204.169,1197454.565,1196716.888,1197022.994,306.1,None,0,2026-07-09T15:37:29.1397204+02:00
theo,1,2,152,VT,1,slow,narrow,D1,1200182.793,1200182.793,1200182.793,1200823.563,1201143.635,1201422.014,1201714.477,1202034.753,1202674.907,1202674.907,1203065.275,390.4,None,0,2026-07-09T15:37:33.2344388+02:00
theo,1,2,153,T,1,slow,narrow,D2,1204276.141,,,,,,,,,1206142.370,1206462.084,319.7,None,0,2026-07-09T15:37:36.9636360+02:00
theo,1,2,154,VT,1,slow,narrow,D1,1208007.169,1208007.169,1208007.169,1208647.779,1208967.949,1209246.542,1209539.199,1209845.474,1210499.581,1210499.581,1210834.082,334.5,None,0,2026-07-09T15:37:41.0029126+02:00
theo,1,3,1,VT,1,slow,narrow,D4,1254827.140,1254827.140,1254827.140,1255467.799,1255787.744,1256066.236,1256358.670,1256678.851,1257319.386,1256066.236,1256595.212,529.0,None,0,2026-07-09T15:38:27.5010093+02:00
theo,1,3,2,VT,1,slow,narrow,D6,1258544.835,1258544.835,1258544.835,1259185.856,1259505.275,1259783.845,1260076.330,1260396.320,1261036.531,1259185.856,1259659.063,473.2,None,0,2026-07-09T15:38:31.2188033+02:00
theo,1,3,3,T,1,slow,narrow,D7,1262261.470,,,,,,,,,1262261.470,1262874.131,612.7,None,0,2026-07-09T15:38:34.9356230+02:00
theo,1,3,4,T,1,fast,narrow,D3,1265978.620,,,,,,,,,1266591.925,1266995.610,403.7,None,0,2026-07-09T15:38:38.6534655+02:00
theo,1,3,5,VT,1,fast,narrow,D2,1269696.842,1269696.842,1269696.842,1269947.149,1270072.220,1270183.680,1270309.305,1270434.576,1270685.185,1270434.576,1270740.850,306.3,None,0,2026-07-09T15:38:42.3712967+02:00
theo,1,3,6,T,1,fast,narrow,D3,1273414.797,,,,,,,,,1274041.491,1274445.172,403.7,None,0,2026-07-09T15:38:46.0894810+02:00
theo,1,3,7,VT,1,slow,narrow,D4,1277132.006,1277132.006,1277132.006,1277772.446,1278092.649,1278370.864,1278663.390,1278983.738,1279624.156,1278370.864,1278705.377,334.5,None,0,2026-07-09T15:38:49.8065002+02:00
theo,1,3,8,T,1,slow,narrow,D6,1280849.309,,,,,,,,,1281503.874,1282158.317,654.4,None,0,2026-07-09T15:38:53.5244866+02:00
theo,1,3,9,VT,1,slow,narrow,D7,1284566.771,1284566.771,1284566.771,1285207.079,1285527.651,1285805.717,1286097.796,1286417.912,1287058.243,1284566.771,1285095.785,529.0,None,0,2026-07-09T15:38:57.2404932+02:00
theo,1,3,10,T,1,slow,narrow,D5,1288283.181,,,,,,,,,1289257.781,1289689.472,431.7,None,0,2026-07-09T15:39:00.9722408+02:00
theo,1,3,11,T,1,slow,narrow,D4,1292014.971,,,,,,,,,1293266.698,1293712.342,445.6,None,0,2026-07-09T15:39:04.6885743+02:00
theo,1,3,12,VT,1,fast,narrow,D3,1295731.217,1295731.217,1295731.217,1295981.738,1296106.904,1296218.292,1296330.197,1296468.980,1296719.476,1296330.197,1296636.607,306.4,None,0,2026-07-09T15:39:08.4053321+02:00
theo,1,3,13,VT,1,fast,narrow,D7,1299448.926,1299448.926,1299448.926,1299699.230,1299824.787,1299935.952,1300061.073,1300186.763,1300436.990,1299448.926,1300993.742,1544.8,None,0,2026-07-09T15:39:12.1226750+02:00
theo,1,3,14,VT,1,fast,narrow,D5,1303165.534,1303165.534,1303165.534,1303416.079,1303541.653,1303652.678,1303778.155,1303903.496,1304153.808,1303541.653,1303861.687,320.0,None,0,2026-07-09T15:39:15.8402001+02:00
theo,1,3,15,T,1,slow,narrow,D4,1306882.577,,,,,,,,,1308135.945,1308534.645,398.7,None,0,2026-07-09T15:39:19.5687923+02:00
theo,1,3,16,VT,1,slow,narrow,D2,1310611.301,1310611.301,1310611.301,1311252.230,1311572.383,1311851.545,1312143.864,1312450.064,1313104.528,1312450.064,1312770.868,320.8,None,0,2026-07-09T15:39:23.2868115+02:00
theo,1,3,17,T,1,slow,narrow,D3,1314329.791,,,,,,,,,1315875.086,1316250.978,375.9,None,0,2026-07-09T15:39:27.0179603+02:00
theo,1,3,18,VT,1,fast,narrow,D3,1318061.113,1318061.113,1318061.113,1318311.638,1318437.215,1318548.479,1318673.854,1318799.229,1319049.623,1318673.854,1319022.032,348.2,None,0,2026-07-09T15:39:30.7354442+02:00
theo,1,3,19,VT,1,fast,narrow,D2,1321778.170,1321778.170,1321778.170,1322029.032,1322154.421,1322265.326,1322391.060,1322516.302,1322766.947,1322516.302,1322795.369,279.1,None,0,2026-07-09T15:39:34.4530835+02:00
theo,1,3,20,V,0,fast,narrow,,1325495.356,1325495.356,1325495.356,1325746.242,1325871.348,1325982.898,1326107.899,1326233.456,1326483.744,,,,None,0,2026-07-09T15:39:38.1712469+02:00
theo,1,3,21,VT,1,slow,narrow,D4,1329213.201,1329213.201,1329213.201,1329853.764,1330173.813,1330452.624,1330745.263,1331065.284,1331705.801,1330452.624,1330800.960,348.3,None,0,2026-07-09T15:39:41.8883658+02:00
theo,1,3,22,VT,1,slow,narrow,D1,1332931.688,1332931.688,1332931.688,1333572.003,1333892.218,1334170.678,1334462.784,1334783.064,1335423.392,1335423.392,1335729.732,306.3,None,0,2026-07-09T15:39:45.8992331+02:00
theo,1,3,23,T,1,slow,narrow,D7,1336941.057,,,,,,,,,1336941.057,1337720.566,779.5,None,0,2026-07-09T15:39:49.6148072+02:00
theo,1,3,24,V,0,slow,narrow,,1340657.669,1340657.669,1340657.669,1341297.879,1341617.967,1341896.189,1342188.745,1342509.146,1343148.988,,,,None,0,2026-07-09T15:39:53.3315483+02:00
theo,1,3,25,VT,1,slow,narrow,D7,1344374.295,1344374.295,1344374.295,1345014.674,1345336.253,1345613.337,1345906.134,1346226.101,1346866.915,1344374.295,1345042.330,668.0,None,0,2026-07-09T15:39:57.0495898+02:00
theo,1,3,26,VT,1,fast,narrow,D3,1348091.782,1348091.782,1348091.782,1348342.107,1348467.517,1348578.969,1348704.607,1348829.346,1349080.333,1348704.607,1349052.167,347.6,None,0,2026-07-09T15:40:00.7661203+02:00
theo,1,3,27,T,1,fast,narrow,D1,1351808.727,,,,,,,,,1352811.686,1353535.580,723.9,None,0,2026-07-09T15:40:04.4833577+02:00
theo,1,3,28,V,0,fast,narrow,,1355525.996,1355525.996,1355525.996,1355776.774,1355901.868,1356013.152,1356138.604,1356263.927,1356514.183,,,,None,0,2026-07-09T15:40:08.2013682+02:00
theo,1,3,29,VT,1,slow,narrow,D4,1359242.843,1359242.843,1359242.843,1359883.453,1360203.886,1360481.940,1360774.502,1361094.758,1361735.073,1360481.940,1360844.148,362.2,None,0,2026-07-09T15:40:11.9177234+02:00
theo,1,3,30,T,1,slow,narrow,D3,1362962.323,,,,,,,,,1364505.453,1364825.792,320.3,None,0,2026-07-09T15:40:15.6485710+02:00
theo,1,3,31,VT,1,slow,narrow,D5,1366691.726,1366691.726,1366691.726,1367332.126,1367652.200,1367930.816,1368223.293,1368529.879,1369184.427,1367652.200,1367986.667,334.5,None,0,2026-07-09T15:40:19.3672190+02:00
theo,1,3,32,VT,1,fast,narrow,D3,1370409.267,1370409.267,1370409.267,1370660.169,1370785.107,1370896.449,1371022.131,1371147.455,1371397.601,1371022.131,1371314.346,292.2,None,0,2026-07-09T15:40:23.0838836+02:00
theo,1,3,33,T,1,fast,narrow,D2,1374126.747,,,,,,,,,1374878.235,1375184.763,306.5,None,0,2026-07-09T15:40:26.7996695+02:00
theo,1,3,34,VT,1,fast,narrow,D4,1377843.013,1377843.013,1377843.013,1378093.962,1378219.230,1378330.337,1378455.489,1378580.950,1378831.607,1378330.337,1378525.233,194.9,None,0,2026-07-09T15:40:30.5177111+02:00
theo,1,3,35,VT,1,fast,narrow,D2,1381560.100,1381560.100,1381560.100,1381810.933,1381936.489,1382047.529,1382172.724,1382298.326,1382548.767,1382298.326,1382604.590,306.3,None,0,2026-07-09T15:40:34.2349105+02:00
theo,1,3,36,T,1,fast,narrow,D6,1385277.184,,,,,,,,,1385542.092,1385904.187,362.1,None,0,2026-07-09T15:40:37.9519246+02:00
theo,1,3,37,VT,1,fast,narrow,D5,1388994.293,1388994.293,1388994.293,1389245.028,1389370.041,1389481.386,1389607.268,1389732.106,1389983.031,1389370.041,1389704.208,334.2,None,0,2026-07-09T15:40:41.6690882+02:00
theo,1,3,38,T,1,slow,narrow,D4,1392712.166,,,,,,,,,1393964.896,1394411.017,446.1,None,0,2026-07-09T15:40:45.3869190+02:00
theo,1,3,39,VT,1,slow,narrow,D5,1396429.844,1396429.844,1396429.844,1397070.221,1397390.794,1397669.214,1397961.641,1398267.859,1398922.301,1397390.794,1397752.875,362.1,None,0,2026-07-09T15:40:49.1045239+02:00
theo,1,3,40,VT,1,slow,narrow,D6,1400147.492,1400147.492,1400147.492,1400788.081,1401108.358,1401386.984,1401679.345,1401999.595,1402640.003,1400788.081,1401067.029,278.9,None,0,2026-07-09T15:40:52.8225474+02:00
theo,1,3,41,T,1,fast,narrow,D3,1403864.942,,,,,,,,,1404491.577,1404839.777,348.2,None,0,2026-07-09T15:40:56.5390874+02:00
theo,1,3,42,T,1,fast,narrow,D2,1407581.389,,,,,,,,,1408333.283,1408778.469,445.2,None,0,2026-07-09T15:41:00.2559548+02:00
theo,1,3,43,VT,1,fast,narrow,D5,1411298.336,1411298.336,1411298.336,1411548.762,1411674.214,1411785.552,1411910.811,1412036.495,1412286.844,1411674.214,1411952.991,278.8,None,0,2026-07-09T15:41:03.9729029+02:00
theo,1,3,44,VT,1,slow,narrow,D4,1415014.980,1415014.980,1415014.980,1415655.142,1415975.435,1416253.868,1416546.252,1416866.435,1417507.111,1416253.868,1416532.486,278.6,None,0,2026-07-09T15:41:07.6904330+02:00
theo,1,3,45,V,0,slow,narrow,,1418731.678,1418731.678,1418731.678,1419371.993,1419692.486,1419970.375,1420263.059,1420583.148,1421223.410,,,,None,0,2026-07-09T15:41:11.4055799+02:00
theo,1,3,46,T,1,slow,narrow,D1,1422448.373,,,,,,,,,1424955.118,1425303.459,348.3,None,0,2026-07-09T15:41:15.4737728+02:00
theo,1,3,47,T,1,slow,narrow,D1,1426514.471,,,,,,,,,1429020.298,1429368.455,348.2,None,0,2026-07-09T15:41:19.5381548+02:00
theo,1,3,48,VT,1,fast,narrow,D3,1430579.691,1430579.691,1430579.691,1430830.357,1430955.742,1431067.426,1431192.504,1431317.716,1431568.294,1431192.504,1431512.566,320.1,None,0,2026-07-09T15:41:23.2550346+02:00
theo,1,3,49,T,1,fast,narrow,D5,1434296.460,,,,,,,,,1434686.309,1434992.962,306.7,None,0,2026-07-09T15:41:26.9720499+02:00
theo,1,3,50,VT,1,fast,narrow,D1,1438013.642,1438013.642,1438013.642,1438264.410,1438389.631,1438501.271,1438626.474,1438752.182,1439002.119,1439002.119,1439246.851,244.7,None,0,2026-07-09T15:41:30.6884078+02:00
theo,1,3,51,VT,1,fast,narrow,D6,1441730.574,1441730.574,1441730.574,1441981.410,1442106.541,1442217.722,1442343.172,1442468.496,1442719.414,1441981.410,1442287.637,306.2,None,0,2026-07-09T15:41:34.4059671+02:00
theo,1,3,52,VT,1,fast,narrow,D1,1445447.646,1445447.646,1445447.646,1445698.470,1445823.680,1445934.985,1446060.316,1446186.040,1446436.179,1446436.179,1446687.123,250.9,None,0,2026-07-09T15:41:38.1229048+02:00
theo,1,3,53,V,0,fast,narrow,,1449165.334,1449165.334,1449165.334,1449416.078,1449540.895,1449652.335,1449777.682,1449903.183,1450153.527,,,,None,0,2026-07-09T15:41:41.8398235+02:00
theo,1,3,54,VT,1,fast,narrow,D7,1452882.512,1452882.512,1452882.512,1453133.327,1453258.408,1453369.933,1453494.940,1453620.235,1453870.795,1452882.512,1453258.408,375.9,None,0,2026-07-09T15:41:45.5580268+02:00
theo,1,3,55,T,1,slow,narrow,D4,1456599.307,,,,,,,,,1457852.719,1458214.374,361.7,None,0,2026-07-09T15:41:49.2739192+02:00
theo,1,3,56,VT,1,slow,narrow,D7,1460316.771,1460316.771,1460316.771,1460956.941,1461277.551,1461555.637,1461848.227,1462168.340,1462808.690,1460316.771,1460998.869,682.1,None,0,2026-07-09T15:41:52.9914786+02:00
theo,1,3,57,T,1,slow,narrow,D2,1464034.049,,,,,,,,,1465899.176,1466192.067,292.9,None,0,2026-07-09T15:41:56.7226091+02:00
theo,1,3,58,VT,1,fast,narrow,D3,1467765.041,1467765.041,1467765.041,1468015.451,1468140.709,1468252.276,1468377.679,1468502.659,1468753.278,1468377.679,1468641.996,264.3,None,0,2026-07-09T15:42:00.4415959+02:00
theo,1,3,59,T,1,fast,narrow,D6,1471483.320,,,,,,,,,1471747.223,1472053.334,306.1,None,0,2026-07-09T15:42:04.1583482+02:00
theo,1,3,60,VT,1,fast,narrow,D4,1475200.304,1475200.304,1475200.304,1475450.615,1475575.911,1475687.560,1475813.012,1475938.131,1476188.647,1475687.560,1476021.511,334.0,None,0,2026-07-09T15:42:07.8756166+02:00
theo,1,3,61,VT,1,slow,narrow,D4,1478918.234,1478918.234,1478918.234,1479558.123,1479878.457,1480156.695,1480448.982,1480769.198,1481409.621,1480156.695,1480435.200,278.5,None,0,2026-07-09T15:42:11.5927147+02:00
theo,1,3,62,VT,1,slow,narrow,D2,1482635.188,1482635.188,1482635.188,1483275.258,1483595.483,1483873.913,1484166.502,1484486.254,1485126.992,1484486.254,1484750.747,264.5,None,0,2026-07-09T15:42:15.3102052+02:00
theo,1,3,63,V,0,slow,narrow,,1486351.843,1486351.843,1486351.843,1486991.966,1487312.291,1487590.161,1487883.121,1488203.560,1488842.904,,,,None,0,2026-07-09T15:42:19.0257161+02:00
theo,1,3,64,VT,1,slow,narrow,D6,1490068.209,1490068.209,1490068.209,1490708.843,1491029.085,1491307.858,1491600.199,1491906.533,1492560.531,1490708.843,1491140.763,431.9,None,0,2026-07-09T15:42:22.7432032+02:00
theo,1,3,65,VT,1,slow,narrow,D1,1493785.720,1493785.720,1493785.720,1494426.196,1494746.361,1495024.749,1495317.219,1495637.272,1496277.916,1496277.916,1496621.719,343.8,None,0,2026-07-09T15:42:26.7928760+02:00
theo,1,3,66,T,1,fast,narrow,D3,1497613.946,,,,,,,,,1498240.946,1498727.656,486.7,None,0,2026-07-09T15:42:30.2892553+02:00
theo,1,3,67,VT,1,fast,narrow,D1,1501331.201,1501331.201,1501331.201,1501581.751,1501707.085,1501818.164,1501943.905,1502069.409,1502319.400,1502319.400,1502598.032,278.6,None,0,2026-07-09T15:42:34.0060535+02:00
theo,1,3,68,VT,1,fast,narrow,D7,1505048.471,1505048.471,1505048.471,1505299.170,1505424.391,1505536.126,1505661.326,1505786.758,1506037.693,1505048.471,1505549.859,501.4,None,0,2026-07-09T15:42:37.7238145+02:00
theo,1,3,69,VT,1,slow,narrow,D3,1508765.553,1508765.553,1508765.553,1509406.124,1509726.365,1510005.126,1510297.492,1510617.629,1511258.310,1510297.492,1510729.430,431.9,None,0,2026-07-09T15:42:41.4411632+02:00
theo,1,3,70,VT,1,slow,narrow,D3,1512483.927,1512483.927,1512483.927,1513124.391,1513444.392,1513722.994,1514015.152,1514335.449,1514975.810,1514015.152,1514377.345,362.2,None,0,2026-07-09T15:42:45.1590545+02:00
theo,1,3,71,VT,1,slow,narrow,D7,1516200.418,1516200.418,1516200.418,1516840.961,1517160.569,1517439.392,1517731.286,1518051.642,1518692.620,1516200.418,1516743.795,543.4,None,0,2026-07-09T15:42:48.8757360+02:00
theo,1,3,72,VT,1,fast,narrow,D4,1519917.484,1519917.484,1519917.484,1520167.963,1520292.983,1520404.305,1520529.557,1520655.001,1520905.593,1520404.305,1520766.758,362.5,None,0,2026-07-09T15:42:52.5928590+02:00
theo,1,3,73,T,1,fast,narrow,D2,1523634.511,,,,,,,,,1524386.296,1524636.773,250.5,None,0,2026-07-09T15:42:56.3101412+02:00
theo,1,3,74,T,1,fast,narrow,D7,1527351.046,,,,,,,,,1527351.046,1527936.868,585.8,None,0,2026-07-09T15:43:00.0267454+02:00
theo,1,3,75,T,1,fast,narrow,D4,1531068.455,,,,,,,,,1531569.892,1531876.361,306.5,None,0,2026-07-09T15:43:03.7432244+02:00
theo,1,3,76,VT,1,slow,narrow,D3,1534785.778,1534785.778,1534785.778,1535426.265,1535746.513,1536025.341,1536317.565,1536637.534,1537277.761,1536317.565,1536679.853,362.3,None,0,2026-07-09T15:43:07.4609144+02:00
theo,1,3,77,T,1,slow,narrow,D2,1538503.463,,,,,,,,,1540368.454,1540675.514,307.1,None,0,2026-07-09T15:43:11.1920357+02:00
theo,1,3,78,VT,1,slow,narrow,D6,1542234.309,1542234.309,1542234.309,1542874.906,1543195.481,1543473.727,1543766.076,1544086.268,1544726.307,1542874.906,1543167.901,293.0,None,0,2026-07-09T15:43:14.9095812+02:00
theo,1,3,79,VT,1,fast,narrow,D4,1545951.855,1545951.855,1545951.855,1546202.486,1546327.556,1546439.110,1546564.244,1546689.679,1546940.679,1546439.110,1546703.471,264.4,None,0,2026-07-09T15:43:18.6265963+02:00
theo,1,3,80,T,1,fast,narrow,D5,1549669.563,,,,,,,,,1550059.239,1550337.849,278.6,None,0,2026-07-09T15:43:22.3451435+02:00
theo,1,3,81,VT,1,fast,narrow,D6,1553387.508,1553387.508,1553387.508,1553638.407,1553763.575,1553875.168,1554000.158,1554125.813,1554376.126,1553638.407,1553958.547,320.1,None,0,2026-07-09T15:43:26.0631076+02:00
theo,1,3,82,VT,1,fast,narrow,D6,1557104.374,1557104.374,1557104.374,1557354.973,1557480.244,1557591.652,1557717.002,1557842.103,1558092.700,1557354.973,1557633.780,278.8,None,0,2026-07-09T15:43:29.7793014+02:00
theo,1,3,83,VT,1,fast,narrow,D7,1560821.459,1560821.459,1560821.459,1561072.294,1561197.412,1561308.692,1561433.967,1561559.005,1561809.383,1560821.459,1561308.692,487.2,None,0,2026-07-09T15:43:33.4969277+02:00
theo,1,3,84,VT,1,fast,narrow,D2,1564538.318,1564538.318,1564538.318,1564789.306,1564914.254,1565025.780,1565137.172,1565276.268,1565526.374,1565276.268,1565679.924,403.7,None,0,2026-07-09T15:43:37.2144819+02:00
theo,1,3,85,T,1,slow,narrow,D3,1568255.336,,,,,,,,,1569800.297,1570148.304,348.0,None,0,2026-07-09T15:43:40.9445083+02:00
theo,1,3,86,T,1,slow,narrow,D1,1571985.643,,,,,,,,,1574491.835,1574811.800,320.0,None,0,2026-07-09T15:43:44.9824643+02:00
theo,1,3,87,VT,1,slow,narrow,D2,1576023.001,1576023.001,1576023.001,1576663.301,1576983.838,1577262.570,1577554.901,1577861.295,1578515.799,1577861.295,1578181.640,320.3,None,0,2026-07-09T15:43:48.6990650+02:00
theo,1,3,88,T,1,fast,narrow,D4,1579741.069,,,,,,,,,1580242.454,1580758.158,515.7,None,0,2026-07-09T15:43:52.4164475+02:00
theo,1,3,89,VT,1,fast,narrow,D6,1583458.476,1583458.476,1583458.476,1583709.044,1583834.674,1583945.916,1584071.363,1584196.232,1584446.822,1583709.044,1584001.591,292.5,None,0,2026-07-09T15:43:56.1339623+02:00
theo,1,3,90,T,1,fast,narrow,D7,1587175.565,,,,,,,,,1587175.565,1587746.359,570.8,None,0,2026-07-09T15:43:59.8506184+02:00
theo,1,3,91,VT,1,slow,narrow,D3,1590892.360,1590892.360,1590892.360,1591532.232,1591852.963,1592131.296,1592423.815,1592743.514,1593384.344,1592423.815,1592771.796,348.0,None,0,2026-07-09T15:44:03.5676944+02:00
theo,1,3,92,T,1,slow,narrow,D5,1594608.870,,,,,,,,,1595583.498,1595945.845,362.3,None,0,2026-07-09T15:44:07.2984578+02:00
theo,1,3,93,VT,1,slow,narrow,D1,1598340.244,1598340.244,1598340.244,1598980.561,1599300.932,1599579.022,1599871.655,1600191.799,1600832.135,1600832.135,1601152.332,320.2,None,0,2026-07-09T15:44:11.3228350+02:00
theo,1,3,94,VT,1,fast,narrow,D4,1602363.478,1602363.478,1602363.478,1602614.297,1602739.396,1602850.693,1602975.956,1603101.730,1603351.936,1602850.693,1603199.166,348.5,None,0,2026-07-09T15:44:15.0386526+02:00
theo,1,3,95,VT,1,fast,narrow,D5,1606080.863,1606080.863,1606080.863,1606331.186,1606456.904,1606568.088,1606693.743,1606819.145,1607069.145,1606456.904,1606735.569,278.7,None,0,2026-07-09T15:44:18.7646797+02:00
theo,1,3,96,VT,1,fast,narrow,D5,1609767.244,1609767.244,1609767.244,1610018.344,1610143.181,1610255.428,1610366.587,1610506.465,1610756.513,1610143.181,1610422.529,279.3,None,0,2026-07-09T15:44:22.4452180+02:00
theo,1,3,97,VT,1,slow,narrow,D3,1613487.565,1613487.565,1613487.565,1614128.108,1614448.001,1614726.695,1615018.857,1615339.128,1615979.568,1615018.857,1615311.463,292.6,None,0,2026-07-09T15:44:26.1625742+02:00
theo,1,3,98,VT,1,slow,narrow,D2,1617204.496,1617204.496,1617204.496,1617844.776,1618164.816,1618443.253,1618735.749,1619055.862,1619696.566,1619055.862,1619390.459,334.6,None,0,2026-07-09T15:44:29.8801303+02:00
theo,1,3,99,T,1,slow,narrow,D2,1620921.364,,,,,,,,,1622786.997,1623121.291,334.3,None,0,2026-07-09T15:44:33.6110891+02:00
theo,1,3,100,VT,1,fast,narrow,D4,1624653.119,1624653.119,1624653.119,1624903.510,1625028.711,1625140.510,1625265.800,1625390.795,1625641.553,1625140.510,1625404.734,264.2,None,0,2026-07-09T15:44:37.3291305+02:00
theo,1,3,101,VT,1,fast,narrow,D7,1628371.066,1628371.066,1628371.066,1628621.168,1628746.877,1628858.212,1628983.465,1629108.416,1629359.251,1628371.066,1628872.128,501.1,None,0,2026-07-09T15:44:41.0467747+02:00
theo,1,3,102,T,1,fast,narrow,D7,1632088.187,,,,,,,,,1632088.187,1632408.426,320.2,None,0,2026-07-09T15:44:44.7629170+02:00
theo,1,3,103,VT,1,slow,narrow,D3,1635804.750,1635804.750,1635804.750,1636445.319,1636765.555,1637044.220,1637336.463,1637656.969,1638296.792,1637336.463,1637670.777,334.3,None,0,2026-07-09T15:44:48.4803994+02:00
theo,1,3,104,VT,1,slow,narrow,D2,1639522.110,1639522.110,1639522.110,1640162.309,1640482.379,1640760.736,1641053.309,1641373.326,1642013.774,1641373.326,1641944.136,570.8,None,0,2026-07-09T15:44:52.1969248+02:00
theo,1,3,105,VT,1,slow,narrow,D5,1643239.314,1643239.314,1643239.314,1643879.019,1644199.691,1644477.788,1644770.351,1645090.320,1645731.275,1644199.691,1644742.430,542.7,None,0,2026-07-09T15:44:55.9143250+02:00
theo,1,3,106,V,0,slow,narrow,,1646955.921,1646955.921,1646955.921,1647596.380,1647916.038,1648195.008,1648487.474,1648807.858,1649447.905,,,,None,0,2026-07-09T15:44:59.6309831+02:00
theo,1,3,107,T,1,fast,narrow,D4,1650673.209,,,,,,,,,1651174.357,1651577.864,403.5,None,0,2026-07-09T15:45:03.3487694+02:00
theo,1,3,108,VT,1,fast,narrow,D1,1654390.480,1654390.480,1654390.480,1654641.332,1654766.357,1654878.022,1655003.675,1655128.440,1655379.243,1655379.243,1655628.455,249.2,None,0,2026-07-09T15:45:07.0664533+02:00
theo,1,3,109,T,1,fast,narrow,D5,1658107.982,,,,,,,,,1658497.403,1658831.388,334.0,None,0,2026-07-09T15:45:10.7830750+02:00
theo,1,3,110,T,1,slow,narrow,D3,1661824.650,,,,,,,,,1663370.114,1663718.207,348.1,None,0,2026-07-09T15:45:14.5139865+02:00
theo,1,3,111,T,1,slow,narrow,D7,1665555.706,,,,,,,,,1665555.706,1666210.036,654.3,None,0,2026-07-09T15:45:18.2313241+02:00
theo,1,3,112,V,0,slow,narrow,,1669273.676,1669273.676,1669273.676,1669913.636,1670233.618,1670512.466,1670804.733,1671124.924,1671765.649,,,,None,0,2026-07-09T15:45:21.9492987+02:00
theo,1,3,113,T,1,fast,narrow,D4,1672990.308,,,,,,,,,1673491.745,1673811.653,319.9,None,0,2026-07-09T15:45:25.6662674+02:00
theo,1,3,114,T,1,fast,narrow,D7,1676707.395,,,,,,,,,1676707.395,1677139.060,431.7,None,0,2026-07-09T15:45:29.3836151+02:00
theo,1,3,115,VT,1,fast,narrow,D2,1680424.572,1680424.572,1680424.572,1680674.787,1680800.382,1680911.567,1681037.276,1681162.123,1681412.945,1681162.123,1681468.761,306.6,None,0,2026-07-09T15:45:33.1003467+02:00
theo,1,3,116,VT,1,slow,narrow,D7,1684141.896,1684141.896,1684141.896,1684782.000,1685102.152,1685381.081,1685673.002,1685993.326,1686633.676,1684141.896,1684587.244,445.3,None,0,2026-07-09T15:45:36.8178605+02:00
theo,1,3,117,VT,1,slow,narrow,D5,1687859.452,1687859.452,1687859.452,1688499.752,1688819.990,1689098.790,1689390.917,1689711.041,1690351.387,1688819.990,1689112.560,292.6,None,0,2026-07-09T15:45:40.5359954+02:00
theo,1,3,118,T,1,slow,narrow,D5,1691576.676,,,,,,,,,1692551.024,1692940.856,389.8,None,0,2026-07-09T15:45:44.2675067+02:00
theo,1,3,119,T,1,slow,narrow,D2,1695308.175,,,,,,,,,1697173.230,1697590.988,417.8,None,0,2026-07-09T15:45:47.9978608+02:00
theo,1,3,120,VT,1,fast,narrow,D6,1699038.647,1699038.647,1699038.647,1699289.443,1699414.374,1699525.877,1699651.125,1699776.670,1700026.909,1699289.443,1699637.396,348.0,None,0,2026-07-09T15:45:51.7150094+02:00
theo,1,3,121,T,1,fast,narrow,D5,1702756.387,,,,,,,,,1703145.888,1703522.053,376.2,None,0,2026-07-09T15:45:55.4335730+02:00
theo,1,3,122,T,1,fast,narrow,D6,1706473.057,,,,,,,,,1706737.892,1707044.469,306.6,None,0,2026-07-09T15:45:59.1505049+02:00
theo,1,3,123,VT,1,slow,narrow,D5,1710190.484,1710190.484,1710190.484,1710831.048,1711151.353,1711429.647,1711721.981,1712042.398,1712682.619,1711151.353,1711457.999,306.6,None,0,2026-07-09T15:46:02.8674040+02:00
theo,1,3,124,VT,1,slow,narrow,D7,1713907.961,1713907.961,1713907.961,1714548.694,1714868.662,1715147.175,1715439.302,1715759.680,1716400.139,1713907.961,1714423.480,515.5,None,0,2026-07-09T15:46:06.5851055+02:00
theo,1,3,125,V,0,slow,narrow,,1717625.096,1717625.096,1717625.096,1718266.042,1718585.768,1718864.000,1719156.163,1719476.844,1720117.587,,,,None,0,2026-07-09T15:46:10.3023631+02:00
theo,1,3,126,VT,1,slow,narrow,D1,1721342.816,1721342.816,1721342.816,1721983.192,1722303.349,1722581.730,1722874.106,1723194.245,1723834.587,1723834.587,1724196.784,362.2,None,0,2026-07-09T15:46:14.3684217+02:00
theo,1,3,127,V,0,fast,narrow,,1725407.546,1725407.546,1725407.546,1725658.324,1725783.464,1725895.003,1726020.606,1726145.423,1726396.199,,,,None,0,2026-07-09T15:46:18.0846166+02:00
theo,1,3,128,VT,1,fast,narrow,D1,1729152.734,1729152.734,1729152.734,1729403.720,1729528.745,1729640.334,1729751.426,1729890.896,1730141.251,1730141.251,1730433.756,292.5,None,0,2026-07-09T15:46:21.8293291+02:00
theo,1,3,129,VT,1,fast,narrow,D7,1732869.717,1732869.717,1732869.717,1733120.259,1733245.249,1733356.389,1733482.407,1733607.439,1733857.824,1732869.717,1733495.978,626.3,None,0,2026-07-09T15:46:25.5466472+02:00
theo,1,3,130,VT,1,slow,narrow,D2,1736586.316,1736586.316,1736586.316,1737226.811,1737546.730,1737825.231,1738117.846,1738437.755,1739078.686,1738437.755,1738702.839,265.1,None,0,2026-07-09T15:46:29.2638619+02:00
theo,1,3,131,VT,1,slow,narrow,D6,1740303.907,1740303.907,1740303.907,1740944.505,1741264.541,1741542.778,1741835.173,1742155.621,1742795.939,1740944.505,1741264.541,320.0,None,0,2026-07-09T15:46:32.9815246+02:00
theo,1,3,132,T,1,slow,narrow,D1,1744021.712,,,,,,,,,1746527.339,1746833.627,306.3,None,0,2026-07-09T15:46:37.0056509+02:00
theo,1,3,133,V,0,fast,narrow,,1748046.514,1748046.514,1748046.514,1748295.698,1748421.122,1748532.379,1748657.646,1748782.858,1749033.288,,,,None,0,2026-07-09T15:46:40.7225915+02:00
theo,1,3,134,VT,1,fast,narrow,D5,1751761.565,1751761.565,1751761.565,1752012.282,1752137.744,1752249.110,1752374.198,1752499.808,1752750.075,1752137.744,1752485.928,348.2,None,0,2026-07-09T15:46:44.4397830+02:00
theo,1,3,135,VT,1,fast,narrow,D6,1755479.157,1755479.157,1755479.157,1755730.078,1755854.933,1755966.393,1756091.809,1756217.208,1756467.699,1755730.078,1756008.232,278.2,None,0,2026-07-09T15:46:48.1567656+02:00
theo,1,3,136,VT,1,fast,narrow,D2,1759196.701,1759196.701,1759196.701,1759447.427,1759572.187,1759683.583,1759809.503,1759934.209,1760184.922,1759934.209,1760268.546,334.3,None,0,2026-07-09T15:46:51.8735793+02:00
theo,1,3,137,VT,1,fast,narrow,D1,1762913.746,1762913.746,1762913.746,1763164.367,1763289.921,1763401.366,1763512.781,1763651.982,1763902.385,1763902.385,1764208.441,306.1,None,0,2026-07-09T15:46:55.5918032+02:00
theo,1,3,138,T,1,slow,narrow,D7,1766630.820,,,,,,,,,1766630.820,1838385.262,71754.5,None,0,2026-07-09T15:48:08.5595388+02:00
theo,1,3,139,T,1,slow,narrow,D6,1839596.504,,,,,,,,,1840251.091,1840877.489,626.4,None,0,2026-07-09T15:48:12.2892161+02:00
theo,1,3,140,T,1,slow,narrow,D6,1843327.728,,,,,,,,,1843982.352,1844302.152,319.8,None,0,2026-07-09T15:48:16.0211060+02:00
theo,1,3,141,T,1,fast,narrow,D1,1847058.946,,,,,,,,,1848061.904,1848340.047,278.1,None,0,2026-07-09T15:48:19.7382982+02:00
theo,1,3,142,V,0,fast,narrow,,1850775.850,1850775.850,1850775.850,1851026.670,1851151.592,1851263.272,1851388.720,1851513.868,1851764.284,,,,None,0,2026-07-09T15:48:23.4561597+02:00
theo,1,3,143,T,1,fast,narrow,D1,1854493.217,,,,,,,,,1855495.517,1855774.112,278.6,None,0,2026-07-09T15:48:27.1721627+02:00
theo,1,3,144,V,0,fast,narrow,,1858210.656,1858210.656,1858210.656,1858461.084,1858586.331,1858697.715,1858823.097,1858948.592,1859198.734,,,,None,0,2026-07-09T15:48:30.8894143+02:00
theo,1,3,145,VT,1,slow,narrow,D5,1861927.465,1861927.465,1861927.465,1862567.552,1862887.909,1863166.205,1863458.715,1863778.742,1864419.463,1862887.909,1863152.196,264.3,None,0,2026-07-09T15:48:34.6062330+02:00
theo,1,3,146,VT,1,slow,narrow,D1,1865644.574,1865644.574,1865644.574,1866285.020,1866605.383,1866883.774,1867176.477,1867496.068,1868136.718,1868136.718,1868429.684,293.0,None,0,2026-07-09T15:48:38.6034044+02:00
theo,1,3,147,T,1,slow,narrow,D6,1869640.334,,,,,,,,,1870294.582,1870614.548,320.0,None,0,2026-07-09T15:48:42.3335785+02:00
theo,1,3,148,T,1,fast,narrow,D2,1873370.910,,,,,,,,,1874122.608,1874386.907,264.3,None,0,2026-07-09T15:48:46.0499215+02:00
theo,1,3,149,T,1,fast,narrow,D6,1877087.954,,,,,,,,,1877352.320,1877672.662,320.3,None,0,2026-07-09T15:48:49.7673883+02:00
theo,1,3,150,T,1,fast,narrow,D1,1880805.152,,,,,,,,,1881807.462,1882113.654,306.2,None,0,2026-07-09T15:48:53.4852765+02:00
theo,1,3,151,VT,1,slow,narrow,D6,1884522.298,1884522.298,1884522.298,1885162.493,1885482.575,1885761.178,1886053.574,1886373.425,1887014.036,1885162.493,1885440.847,278.4,None,0,2026-07-09T15:48:57.2014408+02:00
theo,1,3,152,VT,1,slow,narrow,D1,1888238.934,1888238.934,1888238.934,1888879.413,1889199.857,1889478.401,1889771.058,1890090.634,1890731.450,1890731.450,1891051.272,319.8,None,0,2026-07-09T15:49:01.2259519+02:00
theo,1,3,153,T,1,slow,narrow,D5,1892262.433,,,,,,,,,1893237.317,1893557.253,319.9,None,0,2026-07-09T15:49:04.9557969+02:00
theo,1,3,154,V,0,slow,narrow,,1895993.818,1895993.818,1895993.818,1896633.774,1896954.320,1897232.492,1897525.352,1897845.086,1898485.507,,,,None,0,2026-07-09T15:49:08.6736674+02:00
